Jar1,Jar1_Colors,Jar2,Jar2_Colors,Jar3_right_or_left,Jar3_text_position_X,Jar3_text_position_Y,Jar3_position_X,Jar3_position_Y,Jar3,Jar3_Colors,same_or_different,Change_Detection_Key,task,green_value,orange_value,purple_value,practice_trials.thisRepN,practice_trials.thisTrialN,practice_trials.thisN,practice_trials.thisIndex,which_trial.thisRepN,which_trial.thisTrialN,which_trial.thisN,which_trial.thisIndex,initial_instructions.started,key_resp_instructions.started,key_resp_instructions.keys,key_resp_instructions.rt,practice_instruc.started,key_resp_practice_instruct.started,key_resp_practice_instruct.keys,key_resp_practice_instruct.rt,text_2.started,key_resp_practice_JarSelection.keys,key_resp_practice_JarSelection.rt,jar1_4.started,jar2_4.started,MarbleValues_4.started,key_resp_trials_2.keys,key_resp_trials_2.corr,fb_2.started,blankscreen_2.started,jar1_4.stopped,jar2_4.stopped,MarbleValues_4.stopped,blankscreen_2.stopped,Same_or_Different_2.started,changedetection_2.started,key_resp_trials_2.rt,fb_2.stopped,text_3.started,key_resp_ready.started,key_resp_ready.keys,key_resp_ready.rt,marbleJar1_SumOfPoints,marbleJar2_SumOfPoints,marbleJar3_SumOfPoints,jar2.started,jar2.stopped,key_resp_trials_JarSelection.keys,key_resp_trials_JarSelection.corr,key_resp_trials_JarSelection.rt,Marble color,Marble points,key_resp_trials.keys,key_resp_trials.corr,key_resp_break.keys,changedetection.started,key_resp_trials.rt,key_resp_break.started,key_resp_break.rt,TOTAL POINTS,both_tasks_feedback.started,key_resp_endofexperiment.keys,key_resp_endofexperiment.rt,anonymous participant id,group,date,expName,psychopyVersion,frameRate,
,,,,,,,,,,,,,,,,,,,,,,,,,18.263792749959975,18.263792749959975,space,1.4169830830069259,,,,,,,,,,,,,,,,,,,,,,,,,,,,,,,,,,,,,,,,,,,,,,,,test_sept24,,2023-09-24_13h20.41.060,purple_orange_green,2022.2.5,None,
,,,,,,,,,,,,,,,,,,,,,,,,,,,,,19.708494457998313,19.708494457998313,space,0.4052928750170395,,,,,,,,,,,,,,,,,,,,,,,,,,,,,,,,,,,,,,,,,,,,test_sept24,,2023-09-24_13h20.41.060,purple_orange_green,2022.2.5,None,
,,,,,,,,,,,,,,,,,,,,,,,,,,,,,,,,,32.0646814169595,None,0.8546875410247594,47.00058774999343,47.00058774999343,47.00058774999343,j,1,51.05363929201849,48.98199341702275,48.996081833029166,48.996081833029166,48.996081833029166,49.982366250013,49.982366250013,49.982366250013,1.043518750113435,53.04845408303663,53.04845408303663,53.04845408303663,space,0.9113123749848455,,,,,,,,,,,,,,,,,,,,,,test_sept24,,2023-09-24_13h20.41.060,purple_orange_green,2022.2.5,None,
./Stimuli/reg_trials/marblejar_left_19.jpg,"['darkorange', 'purple', 'darkorange', 'darkorange', 'green', 'purple', 'darkorange', 'green', 'green']",./Stimuli/reg_trials/rand_marblejar_131.jpg,"['purple', 'purple', 'darkorange', 'purple', 'purple', 'darkorange', 'darkorange', 'darkorange', 'darkorange']",left,0.25,0,-0.5,0,./Stimuli/reg_trials/marblejar3_left_different_19.jpg,"['purple', 'darkorange', 'purple', 'darkorange', 'purple', 'purple', 'green', 'darkorange', 'darkorange']",different,j,task_JarSelection,4,3,2,,,,,0,0,0,206,,,,,,,,,,,,,,,,,,,,,,,,,,,,,,,28,23,24,54.19389570795465,55.69185954204295,f,0,0.9590377080021426,darkorange,3,None,0,None,,,,,,,,,test_sept24,,2023-09-24_13h20.41.060,purple_orange_green,2022.2.5,None,
./Stimuli/reg_trials/rand_marblejar_60.jpg,"['purple', 'purple', 'purple', 'purple', 'purple', 'purple', 'darkorange', 'purple', 'purple']",./Stimuli/reg_trials/marblejar_right_60.jpg,"['purple', 'green', 'darkorange', 'green', 'darkorange', 'purple', 'purple', 'darkorange', 'darkorange']",right,-0.25,0,0.5,0,./Stimuli/reg_trials/marblejar3_right_different_60.jpg,"['purple', 'purple', 'purple', 'purple', 'darkorange', 'purple', 'darkorange', 'purple', 'purple']",different,j,task_JarSelection,4,3,2,,,,,0,1,1,135,,,,,,,,,,,,,,,,,,,,,,,,,,,,,,,19,26,20,59.68214287504088,61.17509129201062,j,0,0.9024552080081776,purple,2,None,0,None,,,,,,,,,test_sept24,,2023-09-24_13h20.41.060,purple_orange_green,2022.2.5,None,
./Stimuli/marblejar_24points4.jpg,"['darkorange', 'darkorange', 'darkorange', 'purple', 'darkorange', 'darkorange', 'purple', 'darkorange', 'purple']",./Stimuli/marblejar_24points14.jpg,"['darkorange', 'purple', 'purple', 'darkorange', 'darkorange', 'darkorange', 'darkorange', 'darkorange', 'purple']",right,-0.25,0,0.5,0,./Stimuli/marblejar_24points24.jpg,"['darkorange', 'darkorange', 'purple', 'darkorange', 'darkorange', 'darkorange', 'darkorange', 'purple', 'purple']",different,j,task_ChangeDetection,4,3,2,,,,,0,2,2,49,,,,,,,,,,,,,,,,,,,,,,,,,,,,,,,24,24,24,65.1165538750356,,None,0,,-1,0,f,0,None,68.09970687504392,1.4784455420449376,,,,,,,test_sept24,,2023-09-24_13h20.41.060,purple_orange_green,2022.2.5,None,
./Stimuli/marblejar_30points2.jpg,"['green', 'darkorange', 'green', 'darkorange', 'darkorange', 'green', 'green', 'darkorange', 'purple']",./Stimuli/marblejar_30points7.jpg,"['green', 'green', 'purple', 'purple', 'darkorange', 'green', 'darkorange', 'green', 'green']",right,-0.25,0,0.5,0,./Stimuli/marblejar_30points12.jpg,"['darkorange', 'darkorange', 'purple', 'green', 'darkorange', 'green', 'green', 'green', 'darkorange']",different,j,task_JarSelection,4,3,2,,,,,0,3,3,72,,,,,,,,,,,,,,,,,,,,,,,,,,,,,,,30,30,30,71.60920095804613,73.09694804204628,j,0,1.2940768740372732,green,4,None,0,None,,,,,,,,,test_sept24,,2023-09-24_13h20.41.060,purple_orange_green,2022.2.5,None,
./Stimuli/reg_trials/marblejar_left_48.jpg,"['purple', 'purple', 'purple', 'purple', 'purple', 'purple', 'darkorange', 'purple', 'purple']",./Stimuli/reg_trials/rand_marblejar_160.jpg,"['darkorange', 'darkorange', 'purple', 'purple', 'darkorange', 'purple', 'purple', 'purple', 'darkorange']",left,0.25,0,-0.5,0,./Stimuli/reg_trials/marblejar_left_48.jpg,"['purple', 'purple', 'purple', 'purple', 'purple', 'purple', 'darkorange', 'purple', 'purple']",same,f,task_JarSelection,4,3,2,,,,,0,4,4,235,,,,,,,,,,,,,,,,,,,,,,,,,,,,,,,19,22,19,77.42982616694644,78.92509895795956,j,0,1.971729623968713,purple,2,None,0,None,,,,,,,,,test_sept24,,2023-09-24_13h20.41.060,purple_orange_green,2022.2.5,None,
./Stimuli/reg_trials/marblejar_left_16.jpg,"['green', 'purple', 'purple', 'darkorange', 'purple', 'purple', 'purple', 'green', 'purple']",./Stimuli/reg_trials/rand_marblejar_128.jpg,"['green', 'darkorange', 'darkorange', 'purple', 'darkorange', 'darkorange', 'purple', 'darkorange', 'purple']",left,0.25,0,-0.5,0,./Stimuli/reg_trials/marblejar_left_16.jpg,"['green', 'purple', 'purple', 'darkorange', 'purple', 'purple', 'purple', 'green', 'purple']",same,f,task_ChangeDetection,4,3,2,,,,,0,5,5,203,,,,,,,,,,,,,,,,,,,,,,,,,,,,,,,23,25,23,83.93201262503862,,None,0,,-1,0,f,1,None,86.9161482079653,1.3455818329239264,,,,,,,test_sept24,,2023-09-24_13h20.41.060,purple_orange_green,2022.2.5,None,
./Stimuli/marblejar_28points5.jpg,"['darkorange', 'purple', 'darkorange', 'darkorange', 'green', 'darkorange', 'darkorange', 'darkorange', 'green']",./Stimuli/marblejar_28points15.jpg,"['darkorange', 'darkorange', 'green', 'purple', 'green', 'purple', 'darkorange', 'green', 'darkorange']",right,-0.25,0,0.5,0,./Stimuli/marblejar_28points15.jpg,"['darkorange', 'darkorange', 'green', 'purple', 'green', 'purple', 'darkorange', 'green', 'darkorange']",same,f,task_JarSelection,4,3,2,,,,,0,6,6,10,,,,,,,,,,,,,,,,,,,,,,,,,,,,,,,28,28,28,90.29358966695145,91.79168983304407,f,0,0.8345746250124648,green,4,None,0,None,,,,,,,,,test_sept24,,2023-09-24_13h20.41.060,purple_orange_green,2022.2.5,None,
./Stimuli/reg_trials/marblejar_left_2.jpg,"['green', 'purple', 'green', 'purple', 'darkorange', 'purple', 'purple', 'darkorange', 'purple']",./Stimuli/reg_trials/rand_marblejar_114.jpg,"['green', 'green', 'darkorange', 'green', 'darkorange', 'purple', 'purple', 'green', 'purple']",left,0.25,0,-0.5,0,./Stimuli/reg_trials/marblejar3_left_different_2.jpg,"['purple', 'purple', 'darkorange', 'darkorange', 'purple', 'green', 'purple', 'purple', 'darkorange']",different,j,task_ChangeDetection,4,3,2,,,,,0,7,7,189,,,,,,,,,,,,,,,,,,,,,,,,,,,,,,,24,28,23,95.654517167015,,None,0,,-1,0,j,1,None,98.64141749998089,1.5091311660362408,,,,,,,test_sept24,,2023-09-24_13h20.41.060,purple_orange_green,2022.2.5,None,
./Stimuli/reg_trials/rand_marblejar_76.jpg,"['green', 'darkorange', 'purple', 'purple', 'purple', 'purple', 'purple', 'darkorange', 'darkorange']",./Stimuli/reg_trials/marblejar_right_76.jpg,"['purple', 'purple', 'purple', 'purple', 'green', 'purple', 'purple', 'purple', 'green']",right,-0.25,0,0.5,0,./Stimuli/reg_trials/marblejar3_right_different_76.jpg,"['darkorange', 'purple', 'purple', 'purple', 'purple', 'darkorange', 'purple', 'purple', 'darkorange']",different,j,task_ChangeDetection,4,3,2,,,,,0,8,8,151,,,,,,,,,,,,,,,,,,,,,,,,,,,,,,,23,22,21,102.19105408294126,,None,0,,-1,0,j,1,None,105.17477162496652,1.4574707080610096,,,,,,,test_sept24,,2023-09-24_13h20.41.060,purple_orange_green,2022.2.5,None,
./Stimuli/reg_trials/marblejar_left_110.jpg,"['darkorange', 'purple', 'darkorange', 'green', 'purple', 'darkorange', 'purple', 'darkorange', 'darkorange']",./Stimuli/reg_trials/rand_marblejar_222.jpg,"['darkorange', 'purple', 'darkorange', 'green', 'darkorange', 'purple', 'purple', 'purple', 'purple']",left,0.25,0,-0.5,0,./Stimuli/reg_trials/marblejar3_left_different_110.jpg,"['purple', 'green', 'darkorange', 'darkorange', 'green', 'purple', 'purple', 'purple', 'purple']",different,j,task_JarSelection,4,3,2,,,,,0,9,9,297,,,,,,,,,,,,,,,,,,,,,,,,,,,,,,,25,23,24,108.6590667499695,110.14619720797054,j,0,0.8403260830091313,purple,2,None,0,None,,,,,,,,,test_sept24,,2023-09-24_13h20.41.060,purple_orange_green,2022.2.5,None,
./Stimuli/reg_trials/rand_marblejar_108.jpg,"['green', 'darkorange', 'purple', 'darkorange', 'darkorange', 'purple', 'green', 'purple', 'green']",./Stimuli/reg_trials/marblejar_right_108.jpg,"['purple', 'purple', 'green', 'purple', 'purple', 'purple', 'purple', 'purple', 'darkorange']",right,-0.25,0,0.5,0,./Stimuli/reg_trials/marblejar_right_108.jpg,"['purple', 'purple', 'green', 'purple', 'purple', 'purple', 'purple', 'purple', 'darkorange']",same,f,task_ChangeDetection,4,3,2,,,,,0,10,10,183,,,,,,,,,,,,,,,,,,,,,,,,,,,,,,,27,21,21,114.03147137502674,,None,0,,-1,0,f,1,None,117.01592454197817,0.9278794160345569,,,,,,,test_sept24,,2023-09-24_13h20.41.060,purple_orange_green,2022.2.5,None,
./Stimuli/marblejar_27points7.jpg,"['green', 'darkorange', 'purple', 'darkorange', 'green', 'darkorange', 'purple', 'green', 'purple']",./Stimuli/marblejar_27points17.jpg,"['green', 'darkorange', 'purple', 'darkorange', 'darkorange', 'darkorange', 'purple', 'green', 'darkorange']",left,0.25,0,-0.5,0,./Stimuli/marblejar_27points7.jpg,"['green', 'darkorange', 'purple', 'darkorange', 'green', 'darkorange', 'purple', 'green', 'purple']",same,f,task_JarSelection,4,3,2,,,,,0,11,11,22,,,,,,,,,,,,,,,,,,,,,,,,,,,,,,,27,27,27,119.96465137496125,121.45812787499744,f,0,0.5967854579212144,purple,2,None,0,None,,,,,,,,,test_sept24,,2023-09-24_13h20.41.060,purple_orange_green,2022.2.5,None,
./Stimuli/reg_trials/marblejar_left_91.jpg,"['green', 'darkorange', 'purple', 'purple', 'green', 'purple', 'darkorange', 'darkorange', 'darkorange']",./Stimuli/reg_trials/rand_marblejar_203.jpg,"['purple', 'purple', 'purple', 'purple', 'purple', 'purple', 'darkorange', 'green', 'purple']",left,0.25,0,-0.5,0,./Stimuli/reg_trials/marblejar3_left_different_91.jpg,"['darkorange', 'purple', 'green', 'purple', 'darkorange', 'purple', 'darkorange', 'green', 'purple']",different,j,task_ChangeDetection,4,3,2,,,,,0,12,12,278,,,,,,,,,,,,,,,,,,,,,,,,,,,,,,,26,21,25,125.0977034169482,,None,0,,-1,0,j,1,None,128.08196404203773,1.8626599159324542,,,,,,,test_sept24,,2023-09-24_13h20.41.060,purple_orange_green,2022.2.5,None,
./Stimuli/reg_trials/rand_marblejar_23.jpg,"['purple', 'purple', 'green', 'green', 'darkorange', 'darkorange', 'darkorange', 'purple', 'purple']",./Stimuli/reg_trials/marblejar_right_23.jpg,"['darkorange', 'purple', 'purple', 'green', 'green', 'purple', 'darkorange', 'green', 'green']",right,-0.25,0,0.5,0,./Stimuli/reg_trials/marblejar3_right_different_23.jpg,"['purple', 'darkorange', 'purple', 'purple', 'purple', 'purple', 'purple', 'darkorange', 'purple']",different,j,task_ChangeDetection,4,3,2,,,,,0,13,13,98,,,,,,,,,,,,,,,,,,,,,,,,,,,,,,,25,28,20,131.9729137920076,,None,0,,-1,0,j,1,None,134.95814741693903,0.6431971240090206,,,,,,,test_sept24,,2023-09-24_13h20.41.060,purple_orange_green,2022.2.5,None,
./Stimuli/reg_trials/rand_marblejar_64.jpg,"['purple', 'darkorange', 'darkorange', 'green', 'darkorange', 'purple', 'purple', 'purple', 'purple']",./Stimuli/reg_trials/marblejar_right_64.jpg,"['purple', 'purple', 'darkorange', 'darkorange', 'purple', 'purple', 'darkorange', 'green', 'purple']",right,-0.25,0,0.5,0,./Stimuli/reg_trials/marblejar3_right_different_64.jpg,"['green', 'darkorange', 'purple', 'darkorange', 'darkorange', 'purple', 'darkorange', 'darkorange', 'purple']",different,j,task_JarSelection,4,3,2,,,,,0,14,14,139,,,,,,,,,,,,,,,,,,,,,,,,,,,,,,,23,23,25,137.62490625004284,139.11260879202746,f,0,1.9469528739573434,purple,2,None,0,None,,,,,,,,,test_sept24,,2023-09-24_13h20.41.060,purple_orange_green,2022.2.5,None,
./Stimuli/marblejar_29points2.jpg,"['green', 'darkorange', 'purple', 'green', 'purple', 'green', 'purple', 'green', 'green']",./Stimuli/marblejar_29points7.jpg,"['purple', 'green', 'green', 'darkorange', 'darkorange', 'green', 'darkorange', 'darkorange', 'darkorange']",right,-0.25,0,0.5,0,./Stimuli/marblejar_29points12.jpg,"['green', 'darkorange', 'purple', 'darkorange', 'darkorange', 'darkorange', 'green', 'green', 'darkorange']",different,j,task_JarSelection,4,3,2,,,,,0,15,15,2,,,,,,,,,,,,,,,,,,,,,,,,,,,,,,,29,29,29,144.09405937499832,145.59137904201634,j,0,0.5468731239670888,green,4,None,0,None,,,,,,,,,test_sept24,,2023-09-24_13h20.41.060,purple_orange_green,2022.2.5,None,
./Stimuli/reg_trials/marblejar_left_93.jpg,"['darkorange', 'purple', 'darkorange', 'darkorange', 'purple', 'green', 'darkorange', 'green', 'purple']",./Stimuli/reg_trials/rand_marblejar_205.jpg,"['purple', 'purple', 'purple', 'darkorange', 'purple', 'green', 'darkorange', 'darkorange', 'green']",left,0.25,0,-0.5,0,./Stimuli/reg_trials/marblejar_left_93.jpg,"['darkorange', 'purple', 'darkorange', 'darkorange', 'purple', 'green', 'darkorange', 'green', 'purple']",same,f,task_ChangeDetection,4,3,2,,,,,0,16,16,280,,,,,,,,,,,,,,,,,,,,,,,,,,,,,,,26,25,26,149.16558641695883,,None,0,,-1,0,f,1,None,152.1489312920021,0.7261205409886315,,,,,,,test_sept24,,2023-09-24_13h20.41.060,purple_orange_green,2022.2.5,None,
./Stimuli/reg_trials/rand_marblejar_81.jpg,"['purple', 'purple', 'darkorange', 'darkorange', 'purple', 'darkorange', 'darkorange', 'purple', 'purple']",./Stimuli/reg_trials/marblejar_right_81.jpg,"['darkorange', 'purple', 'purple', 'darkorange', 'green', 'darkorange', 'purple', 'green', 'darkorange']",right,-0.25,0,0.5,0,./Stimuli/reg_trials/marblejar3_right_different_81.jpg,"['purple', 'purple', 'green', 'purple', 'green', 'purple', 'green', 'green', 'purple']",different,j,task_JarSelection,4,3,2,,,,,0,17,17,156,,,,,,,,,,,,,,,,,,,,,,,,,,,,,,,22,26,26,154.90646920795552,156.39610137499403,j,0,0.8484927500830963,darkorange,3,None,0,None,,,,,,,,,test_sept24,,2023-09-24_13h20.41.060,purple_orange_green,2022.2.5,None,
./Stimuli/reg_trials/marblejar_left_14.jpg,"['purple', 'green', 'darkorange', 'purple', 'darkorange', 'purple', 'purple', 'purple', 'darkorange']",./Stimuli/reg_trials/rand_marblejar_126.jpg,"['darkorange', 'purple', 'purple', 'darkorange', 'darkorange', 'darkorange', 'green', 'purple', 'purple']",left,0.25,0,-0.5,0,./Stimuli/reg_trials/marblejar3_left_different_14.jpg,"['darkorange', 'darkorange', 'purple', 'darkorange', 'purple', 'purple', 'darkorange', 'purple', 'darkorange']",different,j,task_ChangeDetection,4,3,2,,,,,0,18,18,201,,,,,,,,,,,,,,,,,,,,,,,,,,,,,,,23,24,23,160.28529187501408,,None,0,,-1,0,j,1,None,163.26660216704477,0.8725535420235246,,,,,,,test_sept24,,2023-09-24_13h20.41.060,purple_orange_green,2022.2.5,None,
./Stimuli/reg_trials/rand_marblejar_90.jpg,"['purple', 'green', 'purple', 'darkorange', 'purple', 'purple', 'purple', 'purple', 'darkorange']",./Stimuli/reg_trials/marblejar_right_90.jpg,"['darkorange', 'purple', 'purple', 'darkorange', 'purple', 'purple', 'green', 'darkorange', 'purple']",right,-0.25,0,0.5,0,./Stimuli/reg_trials/marblejar_right_90.jpg,"['darkorange', 'purple', 'purple', 'darkorange', 'purple', 'purple', 'green', 'darkorange', 'purple']",same,f,task_ChangeDetection,4,3,2,,,,,0,19,19,165,,,,,,,,,,,,,,,,,,,,,,,,,,,,,,,22,23,23,166.17071937501896,,None,0,,-1,0,f,1,None,169.14936749998014,1.1403252080781385,,,,,,,test_sept24,,2023-09-24_13h20.41.060,purple_orange_green,2022.2.5,None,
./Stimuli/marblejar_26points3.jpg,"['darkorange', 'purple', 'green', 'purple', 'green', 'darkorange', 'darkorange', 'darkorange', 'purple']",./Stimuli/marblejar_26points13.jpg,"['purple', 'green', 'darkorange', 'darkorange', 'purple', 'green', 'purple', 'purple', 'green']",left,0.25,0,-0.5,0,./Stimuli/marblejar_26points23.jpg,"['darkorange', 'purple', 'green', 'green', 'darkorange', 'darkorange', 'darkorange', 'purple', 'purple']",different,j,task_JarSelection,4,3,2,,,,,0,20,20,28,,,,,,,,,,,,,,,,,,,,,,,,,,,,,,,26,26,26,172.30819720798172,173.79666033294052,j,0,0.7072209169855341,darkorange,3,None,0,None,,,,,,,,,test_sept24,,2023-09-24_13h20.41.060,purple_orange_green,2022.2.5,None,
./Stimuli/reg_trials/marblejar_left_75.jpg,"['purple', 'purple', 'darkorange', 'darkorange', 'purple', 'purple', 'purple', 'darkorange', 'green']",./Stimuli/reg_trials/rand_marblejar_187.jpg,"['purple', 'darkorange', 'darkorange', 'darkorange', 'darkorange', 'green', 'darkorange', 'purple', 'darkorange']",left,0.25,0,-0.5,0,./Stimuli/reg_trials/marblejar_left_75.jpg,"['purple', 'purple', 'darkorange', 'darkorange', 'purple', 'purple', 'purple', 'darkorange', 'green']",same,f,task_ChangeDetection,4,3,2,,,,,0,21,21,262,,,,,,,,,,,,,,,,,,,,,,,,,,,,,,,23,26,23,177.55242329195607,,None,0,,-1,0,f,1,None,180.54116795794107,0.752180082956329,,,,,,,test_sept24,,2023-09-24_13h20.41.060,purple_orange_green,2022.2.5,None,
./Stimuli/marblejar_26points1.jpg,"['purple', 'darkorange', 'darkorange', 'purple', 'darkorange', 'green', 'green', 'darkorange', 'purple']",./Stimuli/marblejar_26points11.jpg,"['green', 'purple', 'darkorange', 'darkorange', 'purple', 'darkorange', 'darkorange', 'green', 'purple']",right,-0.25,0,0.5,0,./Stimuli/marblejar_26points21.jpg,"['darkorange', 'purple', 'green', 'purple', 'purple', 'darkorange', 'green', 'purple', 'green']",different,j,task_JarSelection,4,3,2,,,,,0,22,22,26,,,,,,,,,,,,,,,,,,,,,,,,,,,,,,,26,26,26,183.32401108299382,184.81275566702243,f,0,0.8755387919954956,purple,2,None,0,None,,,,,,,,,test_sept24,,2023-09-24_13h20.41.060,purple_orange_green,2022.2.5,None,
./Stimuli/reg_trials/marblejar_left_15.jpg,"['purple', 'purple', 'darkorange', 'green', 'darkorange', 'purple', 'green', 'purple', 'green']",./Stimuli/reg_trials/rand_marblejar_127.jpg,"['darkorange', 'purple', 'green', 'purple', 'green', 'purple', 'darkorange', 'green', 'green']",left,0.25,0,-0.5,0,./Stimuli/reg_trials/marblejar3_left_different_15.jpg,"['purple', 'darkorange', 'darkorange', 'green', 'darkorange', 'darkorange', 'purple', 'darkorange', 'darkorange']",different,j,task_JarSelection,4,3,2,,,,,0,23,23,202,,,,,,,,,,,,,,,,,,,,,,,,,,,,,,,26,28,26,188.72628649999388,190.2245760000078,f,0,0.7182611669413745,purple,2,None,0,None,,,,,,,,,test_sept24,,2023-09-24_13h20.41.060,purple_orange_green,2022.2.5,None,
./Stimuli/reg_trials/marblejar_left_26.jpg,"['darkorange', 'green', 'purple', 'darkorange', 'purple', 'purple', 'darkorange', 'purple', 'purple']",./Stimuli/reg_trials/rand_marblejar_138.jpg,"['purple', 'darkorange', 'purple', 'purple', 'purple', 'darkorange', 'purple', 'darkorange', 'purple']",left,0.25,0,-0.5,0,./Stimuli/reg_trials/marblejar3_left_different_26.jpg,"['purple', 'darkorange', 'green', 'purple', 'green', 'purple', 'purple', 'darkorange', 'darkorange']",different,j,task_ChangeDetection,4,3,2,,,,,0,24,24,213,,,,,,,,,,,,,,,,,,,,,,,,,,,,,,,23,21,25,193.97628970793448,,None,0,,-1,0,j,1,None,196.96601462503895,1.1699880410451442,,,,,,,test_sept24,,2023-09-24_13h20.41.060,purple_orange_green,2022.2.5,None,
./Stimuli/marblejar_23points2.jpg,"['darkorange', 'purple', 'darkorange', 'purple', 'green', 'purple', 'purple', 'purple', 'darkorange']",./Stimuli/marblejar_23points12.jpg,"['darkorange', 'purple', 'purple', 'purple', 'darkorange', 'green', 'purple', 'purple', 'darkorange']",right,-0.25,0,0.5,0,./Stimuli/marblejar_23points22.jpg,"['purple', 'purple', 'darkorange', 'darkorange', 'darkorange', 'darkorange', 'darkorange', 'purple', 'purple']",different,j,task_ChangeDetection,4,3,2,,,,,0,25,25,57,,,,,,,,,,,,,,,,,,,,,,,,,,,,,,,23,23,23,200.1728772079805,,None,0,,-1,0,j,1,None,203.1578754170332,0.7790016660001129,,,,,,,test_sept24,,2023-09-24_13h20.41.060,purple_orange_green,2022.2.5,None,
./Stimuli/reg_trials/rand_marblejar_107.jpg,"['green', 'darkorange', 'purple', 'darkorange', 'purple', 'darkorange', 'green', 'green', 'darkorange']",./Stimuli/reg_trials/marblejar_right_107.jpg,"['purple', 'purple', 'purple', 'darkorange', 'darkorange', 'darkorange', 'darkorange', 'darkorange', 'purple']",right,-0.25,0,0.5,0,./Stimuli/reg_trials/marblejar_right_107.jpg,"['purple', 'purple', 'purple', 'darkorange', 'darkorange', 'darkorange', 'darkorange', 'darkorange', 'purple']",same,f,task_JarSelection,4,3,2,,,,,0,26,26,182,,,,,,,,,,,,,,,,,,,,,,,,,,,,,,,28,23,23,205.95798187493347,207.44657629204448,f,0,0.8774221249623224,green,4,None,0,None,,,,,,,,,test_sept24,,2023-09-24_13h20.41.060,purple_orange_green,2022.2.5,None,
./Stimuli/reg_trials/rand_marblejar_1.jpg,"['darkorange', 'darkorange', 'darkorange', 'darkorange', 'purple', 'darkorange', 'green', 'purple', 'darkorange']",./Stimuli/reg_trials/marblejar_right_1.jpg,"['darkorange', 'darkorange', 'purple', 'darkorange', 'purple', 'purple', 'purple', 'darkorange', 'purple']",right,-0.25,0,0.5,0,./Stimuli/reg_trials/marblejar3_right_different_1.jpg,"['darkorange', 'purple', 'green', 'darkorange', 'darkorange', 'darkorange', 'purple', 'purple', 'darkorange']",different,j,task_ChangeDetection,4,3,2,,,,,0,27,27,76,,,,,,,,,,,,,,,,,,,,,,,,,,,,,,,26,22,25,211.36519287503324,,None,0,,-1,0,j,1,None,214.34918970800936,1.706382624921389,,,,,,,test_sept24,,2023-09-24_13h20.41.060,purple_orange_green,2022.2.5,None,
./Stimuli/marblejar_27points1.jpg,"['green', 'green', 'green', 'darkorange', 'darkorange', 'purple', 'darkorange', 'purple', 'purple']",./Stimuli/marblejar_27points11.jpg,"['darkorange', 'darkorange', 'darkorange', 'darkorange', 'darkorange', 'green', 'purple', 'green', 'purple']",right,-0.25,0,0.5,0,./Stimuli/marblejar_27points11.jpg,"['darkorange', 'darkorange', 'darkorange', 'darkorange', 'darkorange', 'green', 'purple', 'green', 'purple']",same,f,task_JarSelection,4,3,2,,,,,0,28,28,16,,,,,,,,,,,,,,,,,,,,,,,,,,,,,,,27,27,27,218.08007866702974,219.57445062499028,j,0,0.6337403330253437,purple,2,None,0,None,,,,,,,,,test_sept24,,2023-09-24_13h20.41.060,purple_orange_green,2022.2.5,None,
./Stimuli/reg_trials/marblejar_left_90.jpg,"['purple', 'darkorange', 'darkorange', 'purple', 'darkorange', 'purple', 'green', 'purple', 'green']",./Stimuli/reg_trials/rand_marblejar_202.jpg,"['purple', 'purple', 'darkorange', 'purple', 'green', 'purple', 'darkorange', 'darkorange', 'darkorange']",left,0.25,0,-0.5,0,./Stimuli/reg_trials/marblejar3_left_different_90.jpg,"['green', 'green', 'purple', 'darkorange', 'darkorange', 'purple', 'purple', 'purple', 'darkorange']",different,j,task_JarSelection,4,3,2,,,,,0,29,29,277,,,,,,,,,,,,,,,,,,,,,,,,,,,,,,,25,24,25,223.23772350000218,224.72967566701118,f,0,0.5186786249978468,purple,2,None,0,None,,,,,,,,,test_sept24,,2023-09-24_13h20.41.060,purple_orange_green,2022.2.5,None,
./Stimuli/reg_trials/rand_marblejar_106.jpg,"['darkorange', 'darkorange', 'darkorange', 'darkorange', 'darkorange', 'purple', 'purple', 'darkorange', 'green']",./Stimuli/reg_trials/marblejar_right_106.jpg,"['purple', 'purple', 'purple', 'purple', 'green', 'purple', 'darkorange', 'purple', 'green']",right,-0.25,0,0.5,0,./Stimuli/reg_trials/marblejar_right_106.jpg,"['purple', 'purple', 'purple', 'purple', 'green', 'purple', 'darkorange', 'purple', 'green']",same,f,task_ChangeDetection,4,3,2,,,,,0,30,30,181,,,,,,,,,,,,,,,,,,,,,,,,,,,,,,,26,23,23,228.27843383303843,,None,0,,-1,0,f,1,None,231.26587883301545,1.8991367920534685,,,,,,,test_sept24,,2023-09-24_13h20.41.060,purple_orange_green,2022.2.5,None,
./Stimuli/reg_trials/marblejar_left_109.jpg,"['darkorange', 'purple', 'purple', 'green', 'green', 'purple', 'darkorange', 'purple', 'green']",./Stimuli/reg_trials/rand_marblejar_221.jpg,"['purple', 'green', 'darkorange', 'darkorange', 'darkorange', 'purple', 'darkorange', 'darkorange', 'purple']",left,0.25,0,-0.5,0,./Stimuli/reg_trials/marblejar3_left_different_109.jpg,"['green', 'purple', 'darkorange', 'darkorange', 'green', 'purple', 'purple', 'purple', 'purple']",different,j,task_ChangeDetection,4,3,2,,,,,0,31,31,296,,,,,,,,,,,,,,,,,,,,,,,,,,,,,,,26,25,24,235.20477020798717,,None,0,,-1,0,f,0,None,238.18180016695987,0.8269598740153015,,,,,,,test_sept24,,2023-09-24_13h20.41.060,purple_orange_green,2022.2.5,None,
./Stimuli/reg_trials/rand_marblejar_7.jpg,"['purple', 'purple', 'purple', 'darkorange', 'purple', 'purple', 'darkorange', 'green', 'purple']",./Stimuli/reg_trials/marblejar_right_7.jpg,"['purple', 'darkorange', 'purple', 'purple', 'darkorange', 'purple', 'purple', 'purple', 'purple']",right,-0.25,0,0.5,0,./Stimuli/reg_trials/marblejar3_right_different_7.jpg,"['darkorange', 'darkorange', 'darkorange', 'purple', 'green', 'green', 'purple', 'darkorange', 'darkorange']",different,j,task_ChangeDetection,4,3,2,,,,,0,32,32,82,,,,,,,,,,,,,,,,,,,,,,,,,,,,,,,22,20,27,241.03932283294853,,None,0,,-1,0,j,1,None,244.02441441698465,1.0752643749583513,,,,,,,test_sept24,,2023-09-24_13h20.41.060,purple_orange_green,2022.2.5,None,
./Stimuli/reg_trials/marblejar_left_92.jpg,"['darkorange', 'green', 'purple', 'purple', 'purple', 'purple', 'purple', 'darkorange', 'green']",./Stimuli/reg_trials/rand_marblejar_204.jpg,"['purple', 'purple', 'purple', 'darkorange', 'purple', 'green', 'green', 'darkorange', 'purple']",left,0.25,0,-0.5,0,./Stimuli/reg_trials/marblejar_left_92.jpg,"['darkorange', 'green', 'purple', 'purple', 'purple', 'purple', 'purple', 'darkorange', 'green']",same,f,task_JarSelection,4,3,2,,,,,0,33,33,279,,,,,,,,,,,,,,,,,,,,,,,,,,,,,,,24,24,24,247.12469620793127,248.62436549994163,j,0,0.35784200008492917,green,4,None,0,None,,,,,,,,,test_sept24,,2023-09-24_13h20.41.060,purple_orange_green,2022.2.5,None,
./Stimuli/reg_trials/rand_marblejar_13.jpg,"['purple', 'darkorange', 'purple', 'green', 'purple', 'green', 'purple', 'purple', 'darkorange']",./Stimuli/reg_trials/marblejar_right_13.jpg,"['darkorange', 'purple', 'green', 'green', 'green', 'green', 'green', 'purple', 'purple']",right,-0.25,0,0.5,0,./Stimuli/reg_trials/marblejar3_right_different_13.jpg,"['green', 'green', 'purple', 'green', 'purple', 'purple', 'purple', 'purple', 'darkorange']",different,j,task_ChangeDetection,4,3,2,,,,,0,34,34,88,,,,,,,,,,,,,,,,,,,,,,,,,,,,,,,24,29,25,252.0186431669863,,None,0,,-1,0,j,1,None,254.99791833304334,1.5675053329905495,,,,,,,test_sept24,,2023-09-24_13h20.41.060,purple_orange_green,2022.2.5,None,
./Stimuli/reg_trials/marblejar_left_57.jpg,"['purple', 'purple', 'purple', 'darkorange', 'green', 'darkorange', 'purple', 'purple', 'green']",./Stimuli/reg_trials/rand_marblejar_169.jpg,"['darkorange', 'purple', 'darkorange', 'green', 'green', 'green', 'purple', 'green', 'purple']",left,0.25,0,-0.5,0,./Stimuli/reg_trials/marblejar3_left_different_57.jpg,"['purple', 'darkorange', 'purple', 'purple', 'darkorange', 'purple', 'darkorange', 'purple', 'darkorange']",different,j,task_ChangeDetection,4,3,2,,,,,0,35,35,244,,,,,,,,,,,,,,,,,,,,,,,,,,,,,,,24,28,22,258.60184050002135,,None,0,,-1,0,j,1,None,261.5831507919356,1.0390947490232065,,,,,,,test_sept24,,2023-09-24_13h20.41.060,purple_orange_green,2022.2.5,None,
./Stimuli/reg_trials/rand_marblejar_46.jpg,"['purple', 'purple', 'purple', 'green', 'green', 'purple', 'purple', 'purple', 'darkorange']",./Stimuli/reg_trials/marblejar_right_46.jpg,"['green', 'darkorange', 'darkorange', 'purple', 'green', 'darkorange', 'purple', 'green', 'purple']",right,-0.25,0,0.5,0,./Stimuli/reg_trials/marblejar3_right_different_46.jpg,"['darkorange', 'green', 'green', 'darkorange', 'purple', 'purple', 'purple', 'purple', 'darkorange']",different,j,task_JarSelection,4,3,2,,,,,0,36,36,121,,,,,,,,,,,,,,,,,,,,,,,,,,,,,,,23,27,25,264.64115904201753,266.1409299579682,f,0,0.8136375410249457,darkorange,3,None,0,None,,,,,,,,,test_sept24,,2023-09-24_13h20.41.060,purple_orange_green,2022.2.5,None,
./Stimuli/reg_trials/rand_marblejar_25.jpg,"['purple', 'purple', 'darkorange', 'green', 'purple', 'purple', 'purple', 'purple', 'green']",./Stimuli/reg_trials/marblejar_right_25.jpg,"['purple', 'green', 'purple', 'purple', 'darkorange', 'green', 'purple', 'darkorange', 'darkorange']",right,-0.25,0,0.5,0,./Stimuli/reg_trials/marblejar_right_25.jpg,"['purple', 'green', 'purple', 'purple', 'darkorange', 'green', 'purple', 'darkorange', 'darkorange']",same,f,task_ChangeDetection,4,3,2,,,,,0,37,37,100,,,,,,,,,,,,,,,,,,,,,,,,,,,,,,,23,25,25,269.97960695798974,,None,0,,-1,0,j,0,None,272.96565795794595,1.1913782909978181,,,,,,,test_sept24,,2023-09-24_13h20.41.060,purple_orange_green,2022.2.5,None,
./Stimuli/reg_trials/rand_marblejar_85.jpg,"['purple', 'green', 'green', 'purple', 'darkorange', 'purple', 'purple', 'green', 'green']",./Stimuli/reg_trials/marblejar_right_85.jpg,"['darkorange', 'green', 'darkorange', 'darkorange', 'purple', 'darkorange', 'purple', 'darkorange', 'darkorange']",right,-0.25,0,0.5,0,./Stimuli/reg_trials/marblejar3_right_different_85.jpg,"['purple', 'purple', 'purple', 'purple', 'darkorange', 'purple', 'purple', 'darkorange', 'darkorange']",different,j,task_JarSelection,4,3,2,,,,,0,38,38,160,,,,,,,,,,,,,,,,,,,,,,,,,,,,,,,27,26,21,276.17396033299156,277.66232670797035,f,0,1.0881168330088258,green,4,None,0,None,,,,,,,,,test_sept24,,2023-09-24_13h20.41.060,purple_orange_green,2022.2.5,None,
./Stimuli/reg_trials/marblejar_left_69.jpg,"['purple', 'green', 'darkorange', 'purple', 'green', 'green', 'purple', 'purple', 'green']",./Stimuli/reg_trials/rand_marblejar_181.jpg,"['purple', 'purple', 'purple', 'purple', 'darkorange', 'purple', 'purple', 'darkorange', 'green']",left,0.25,0,-0.5,0,./Stimuli/reg_trials/marblejar_left_69.jpg,"['purple', 'green', 'darkorange', 'purple', 'green', 'green', 'purple', 'purple', 'green']",same,f,task_ChangeDetection,4,3,2,,,,,0,39,39,256,,,,,,,,,,,,,,,,,,,,,,,,,,,,,,,27,22,27,281.7960904999636,,None,0,,-1,0,f,1,None,284.78180879203137,0.9557988749584183,,,,,,,test_sept24,,2023-09-24_13h20.41.060,purple_orange_green,2022.2.5,None,
./Stimuli/reg_trials/marblejar_left_29.jpg,"['darkorange', 'green', 'purple', 'purple', 'darkorange', 'darkorange', 'purple', 'darkorange', 'purple']",./Stimuli/reg_trials/rand_marblejar_141.jpg,"['purple', 'purple', 'green', 'purple', 'green', 'darkorange', 'green', 'purple', 'purple']",left,0.25,0,-0.5,0,./Stimuli/reg_trials/marblejar3_left_different_29.jpg,"['green', 'darkorange', 'darkorange', 'purple', 'purple', 'purple', 'green', 'purple', 'green']",different,j,task_JarSelection,4,3,2,,,,,0,40,40,216,,,,,,,,,,,,,,,,,,,,,,,,,,,,,,,24,25,26,287.7620149999857,289.2576234169537,j,0,1.0059217079542577,purple,2,None,0,None,,,,,,,,,test_sept24,,2023-09-24_13h20.41.060,purple_orange_green,2022.2.5,None,
./Stimuli/reg_trials/marblejar_left_111.jpg,"['purple', 'green', 'purple', 'purple', 'green', 'green', 'darkorange', 'green', 'purple']",./Stimuli/reg_trials/rand_marblejar_223.jpg,"['purple', 'purple', 'purple', 'green', 'green', 'darkorange', 'green', 'purple', 'purple']",left,0.25,0,-0.5,0,./Stimuli/reg_trials/marblejar3_left_different_111.jpg,"['purple', 'purple', 'green', 'darkorange', 'darkorange', 'darkorange', 'darkorange', 'purple', 'purple']",different,j,task_ChangeDetection,4,3,2,,,,,0,41,41,298,,,,,,,,,,,,,,,,,,,,,,,,,,,,,,,27,25,24,293.3027476669522,,None,0,,-1,0,None,0,None,296.2909085829742,,,,,,,,test_sept24,,2023-09-24_13h20.41.060,purple_orange_green,2022.2.5,None,
./Stimuli/reg_trials/rand_marblejar_62.jpg,"['purple', 'darkorange', 'darkorange', 'purple', 'darkorange', 'purple', 'purple', 'green', 'green']",./Stimuli/reg_trials/marblejar_right_62.jpg,"['purple', 'darkorange', 'green', 'purple', 'darkorange', 'green', 'darkorange', 'darkorange', 'purple']",right,-0.25,0,0.5,0,./Stimuli/reg_trials/marblejar_right_62.jpg,"['purple', 'darkorange', 'green', 'purple', 'darkorange', 'green', 'darkorange', 'darkorange', 'purple']",same,f,task_JarSelection,4,3,2,,,,,0,42,42,137,,,,,,,,,,,,,,,,,,,,,,,,,,,,,,,25,26,26,301.3073633329477,302.79624370799866,f,0,0.5563169580418617,green,4,None,0,None,,,,,,,,,test_sept24,,2023-09-24_13h20.41.060,purple_orange_green,2022.2.5,None,
./Stimuli/marblejar_30points0.jpg,"['green', 'darkorange', 'darkorange', 'darkorange', 'green', 'darkorange', 'darkorange', 'green', 'darkorange']",./Stimuli/marblejar_30points5.jpg,"['green', 'green', 'purple', 'green', 'green', 'purple', 'green', 'darkorange', 'darkorange']",left,0.25,0,-0.5,0,./Stimuli/marblejar_30points0.jpg,"['green', 'darkorange', 'darkorange', 'darkorange', 'green', 'darkorange', 'darkorange', 'green', 'darkorange']",same,f,task_JarSelection,4,3,2,,,,,0,43,43,70,,,,,,,,,,,,,,,,,,,,,,,,,,,,,,,30,30,30,306.3820607919479,307.87947249994613,j,0,0.8663799990899861,green,4,None,0,None,,,,,,,,,test_sept24,,2023-09-24_13h20.41.060,purple_orange_green,2022.2.5,None,
./Stimuli/reg_trials/marblejar_left_43.jpg,"['purple', 'purple', 'green', 'purple', 'purple', 'purple', 'darkorange', 'darkorange', 'purple']",./Stimuli/reg_trials/rand_marblejar_155.jpg,"['darkorange', 'green', 'green', 'darkorange', 'purple', 'purple', 'green', 'green', 'purple']",left,0.25,0,-0.5,0,./Stimuli/reg_trials/marblejar3_left_different_43.jpg,"['purple', 'purple', 'darkorange', 'green', 'darkorange', 'purple', 'darkorange', 'green', 'darkorange']",different,j,task_ChangeDetection,4,3,2,,,,,0,44,44,230,,,,,,,,,,,,,,,,,,,,,,,,,,,,,,,22,28,26,311.7640460419934,,None,0,,-1,0,j,1,None,314.7491892919643,1.0526725410018116,,,,,,,test_sept24,,2023-09-24_13h20.41.060,purple_orange_green,2022.2.5,None,
./Stimuli/marblejar_24points5.jpg,"['green', 'purple', 'darkorange', 'darkorange', 'darkorange', 'purple', 'purple', 'darkorange', 'purple']",./Stimuli/marblejar_24points15.jpg,"['darkorange', 'purple', 'darkorange', 'darkorange', 'darkorange', 'darkorange', 'purple', 'darkorange', 'purple']",right,-0.25,0,0.5,0,./Stimuli/marblejar_24points15.jpg,"['darkorange', 'purple', 'darkorange', 'darkorange', 'darkorange', 'darkorange', 'purple', 'darkorange', 'purple']",same,f,task_JarSelection,4,3,2,,,,,0,45,45,50,,,,,,,,,,,,,,,,,,,,,,,,,,,,,,,24,24,24,317.8270044999663,319.32437245803885,j,0,0.6370452910196036,darkorange,3,None,0,None,,,,,,,,,test_sept24,,2023-09-24_13h20.41.060,purple_orange_green,2022.2.5,None,
./Stimuli/reg_trials/marblejar_left_63.jpg,"['purple', 'purple', 'purple', 'darkorange', 'purple', 'purple', 'purple', 'purple', 'purple']",./Stimuli/reg_trials/rand_marblejar_175.jpg,"['purple', 'purple', 'green', 'darkorange', 'green', 'green', 'purple', 'darkorange', 'purple']",left,0.25,0,-0.5,0,./Stimuli/reg_trials/marblejar3_left_different_63.jpg,"['purple', 'darkorange', 'darkorange', 'purple', 'purple', 'green', 'darkorange', 'darkorange', 'purple']",different,j,task_ChangeDetection,4,3,2,,,,,0,46,46,250,,,,,,,,,,,,,,,,,,,,,,,,,,,,,,,19,26,24,322.9966017080005,,None,0,,-1,0,f,0,None,325.9818254580023,1.1399109580088407,,,,,,,test_sept24,,2023-09-24_13h20.41.060,purple_orange_green,2022.2.5,None,
./Stimuli/reg_trials/marblejar_left_21.jpg,"['darkorange', 'darkorange', 'green', 'darkorange', 'purple', 'purple', 'purple', 'green', 'purple']",./Stimuli/reg_trials/rand_marblejar_133.jpg,"['darkorange', 'purple', 'darkorange', 'purple', 'purple', 'darkorange', 'darkorange', 'darkorange', 'green']",left,0.25,0,-0.5,0,./Stimuli/reg_trials/marblejar3_left_different_21.jpg,"['darkorange', 'purple', 'purple', 'green', 'green', 'purple', 'green', 'darkorange', 'darkorange']",different,j,task_JarSelection,4,3,2,,,,,0,47,47,208,,,,,,,,,,,,,,,,,,,,,,,,,,,,,,,25,25,27,329.14524066704325,330.6408924169373,j,0,0.9609369169920683,darkorange,3,None,0,None,,,,,,,,,test_sept24,,2023-09-24_13h20.41.060,purple_orange_green,2022.2.5,None,
./Stimuli/reg_trials/rand_marblejar_4.jpg,"['purple', 'darkorange', 'purple', 'purple', 'green', 'purple', 'darkorange', 'green', 'darkorange']",./Stimuli/reg_trials/marblejar_right_4.jpg,"['purple', 'darkorange', 'darkorange', 'darkorange', 'purple', 'green', 'purple', 'purple', 'purple']",right,-0.25,0,0.5,0,./Stimuli/reg_trials/marblejar3_right_different_4.jpg,"['green', 'darkorange', 'darkorange', 'darkorange', 'purple', 'purple', 'purple', 'darkorange', 'purple']",different,j,task_JarSelection,4,3,2,,,,,0,48,48,79,,,,,,,,,,,,,,,,,,,,,,,,,,,,,,,25,23,24,334.6210857499391,336.1128689169418,f,0,0.5611497909994796,purple,2,None,0,None,,,,,,,,,test_sept24,,2023-09-24_13h20.41.060,purple_orange_green,2022.2.5,None,
./Stimuli/reg_trials/rand_marblejar_104.jpg,"['green', 'purple', 'green', 'purple', 'purple', 'purple', 'darkorange', 'darkorange', 'purple']",./Stimuli/reg_trials/marblejar_right_104.jpg,"['darkorange', 'purple', 'darkorange', 'purple', 'green', 'darkorange', 'purple', 'purple', 'darkorange']",right,-0.25,0,0.5,0,./Stimuli/reg_trials/marblejar_right_104.jpg,"['darkorange', 'purple', 'darkorange', 'purple', 'green', 'darkorange', 'purple', 'purple', 'darkorange']",same,f,task_ChangeDetection,4,3,2,,,,,0,49,49,179,,,,,,,,,,,,,,,,,,,,,,,,,,,,,,,24,24,24,339.71401633298956,,None,0,,-1,0,f,1,None,342.69847545796074,0.8807420410448685,,,,,,,test_sept24,,2023-09-24_13h20.41.060,purple_orange_green,2022.2.5,None,
./Stimuli/marblejar_25points4.jpg,"['purple', 'purple', 'green', 'green', 'purple', 'darkorange', 'darkorange', 'purple', 'darkorange']",./Stimuli/marblejar_25points14.jpg,"['darkorange', 'purple', 'darkorange', 'purple', 'darkorange', 'green', 'darkorange', 'purple', 'darkorange']",left,0.25,0,-0.5,0,./Stimuli/marblejar_25points24.jpg,"['purple', 'darkorange', 'darkorange', 'darkorange', 'darkorange', 'darkorange', 'darkorange', 'darkorange', 'purple']",different,j,task_ChangeDetection,4,3,2,,,,,0,50,50,39,,,,,,,,,,,,,,,,,,,,,,,,,,,,,,,25,25,25,345.6172288330272,,None,0,,-1,0,j,1,None,348.59831787494477,0.7168396250344813,,,,,,,test_sept24,,2023-09-24_13h20.41.060,purple_orange_green,2022.2.5,None,
./Stimuli/reg_trials/rand_marblejar_69.jpg,"['darkorange', 'green', 'darkorange', 'green', 'darkorange', 'darkorange', 'darkorange', 'darkorange', 'purple']",./Stimuli/reg_trials/marblejar_right_69.jpg,"['darkorange', 'purple', 'purple', 'purple', 'purple', 'darkorange', 'darkorange', 'darkorange', 'purple']",right,-0.25,0,0.5,0,./Stimuli/reg_trials/marblejar_right_69.jpg,"['darkorange', 'purple', 'purple', 'purple', 'purple', 'darkorange', 'darkorange', 'darkorange', 'purple']",same,f,task_ChangeDetection,4,3,2,,,,,0,51,51,144,,,,,,,,,,,,,,,,,,,,,,,,,,,,,,,28,22,22,351.35000520793255,,None,0,,-1,0,f,1,None,354.3325147079304,0.9555152079556137,,,,,,,test_sept24,,2023-09-24_13h20.41.060,purple_orange_green,2022.2.5,None,
./Stimuli/reg_trials/marblejar_left_73.jpg,"['purple', 'darkorange', 'green', 'darkorange', 'darkorange', 'purple', 'purple', 'purple', 'green']",./Stimuli/reg_trials/rand_marblejar_185.jpg,"['purple', 'purple', 'green', 'purple', 'darkorange', 'darkorange', 'purple', 'purple', 'purple']",left,0.25,0,-0.5,0,./Stimuli/reg_trials/marblejar_left_73.jpg,"['purple', 'darkorange', 'green', 'darkorange', 'darkorange', 'purple', 'purple', 'purple', 'green']",same,f,task_ChangeDetection,4,3,2,,,,,0,52,52,260,,,,,,,,,,,,,,,,,,,,,,,,,,,,,,,25,22,25,357.3165201250231,,None,0,,-1,0,f,1,None,360.2989947500173,0.6607867500279099,,,,,,,test_sept24,,2023-09-24_13h20.41.060,purple_orange_green,2022.2.5,None,
./Stimuli/reg_trials/marblejar_left_36.jpg,"['purple', 'purple', 'purple', 'darkorange', 'darkorange', 'darkorange', 'purple', 'green', 'purple']",./Stimuli/reg_trials/rand_marblejar_148.jpg,"['darkorange', 'purple', 'darkorange', 'green', 'darkorange', 'purple', 'green', 'darkorange', 'purple']",left,0.25,0,-0.5,0,./Stimuli/reg_trials/marblejar3_left_different_36.jpg,"['purple', 'purple', 'purple', 'darkorange', 'purple', 'purple', 'green', 'purple', 'purple']",different,j,task_ChangeDetection,4,3,2,,,,,0,53,53,223,,,,,,,,,,,,,,,,,,,,,,,,,,,,,,,23,26,21,362.98310787498485,,None,0,,-1,0,j,1,None,365.9653482079739,0.7693124579964206,,,,,,,test_sept24,,2023-09-24_13h20.41.060,purple_orange_green,2022.2.5,None,
./Stimuli/reg_trials/marblejar_left_6.jpg,"['green', 'purple', 'darkorange', 'purple', 'darkorange', 'purple', 'darkorange', 'darkorange', 'darkorange']",./Stimuli/reg_trials/rand_marblejar_118.jpg,"['green', 'green', 'darkorange', 'green', 'purple', 'green', 'green', 'green', 'darkorange']",left,0.25,0,-0.5,0,./Stimuli/reg_trials/marblejar3_left_different_6.jpg,"['purple', 'darkorange', 'purple', 'purple', 'green', 'green', 'darkorange', 'darkorange', 'darkorange']",different,j,task_ChangeDetection,4,3,2,,,,,0,54,54,193,,,,,,,,,,,,,,,,,,,,,,,,,,,,,,,25,32,26,368.7655065419385,,None,0,,-1,0,j,1,None,371.748919375008,1.2746278749546036,,,,,,,test_sept24,,2023-09-24_13h20.41.060,purple_orange_green,2022.2.5,None,
./Stimuli/reg_trials/marblejar_left_67.jpg,"['green', 'purple', 'purple', 'darkorange', 'purple', 'darkorange', 'purple', 'purple', 'purple']",./Stimuli/reg_trials/rand_marblejar_179.jpg,"['darkorange', 'darkorange', 'purple', 'darkorange', 'darkorange', 'darkorange', 'green', 'purple', 'darkorange']",left,0.25,0,-0.5,0,./Stimuli/reg_trials/marblejar3_left_different_67.jpg,"['purple', 'darkorange', 'darkorange', 'purple', 'green', 'darkorange', 'purple', 'purple', 'purple']",different,j,task_ChangeDetection,4,3,2,,,,,0,55,55,254,,,,,,,,,,,,,,,,,,,,,,,,,,,,,,,22,26,23,375.04811362503096,,None,0,,-1,0,f,0,None,378.031938583008,0.7575531660113484,,,,,,,test_sept24,,2023-09-24_13h20.41.060,purple_orange_green,2022.2.5,None,
./Stimuli/reg_trials/rand_marblejar_66.jpg,"['purple', 'purple', 'purple', 'purple', 'green', 'green', 'darkorange', 'green', 'purple']",./Stimuli/reg_trials/marblejar_right_66.jpg,"['purple', 'purple', 'green', 'purple', 'green', 'purple', 'green', 'darkorange', 'darkorange']",right,-0.25,0,0.5,0,./Stimuli/reg_trials/marblejar3_right_different_66.jpg,"['green', 'green', 'purple', 'purple', 'purple', 'darkorange', 'purple', 'darkorange', 'darkorange']",different,j,task_JarSelection,4,3,2,,,,,0,56,56,141,,,,,,,,,,,,,,,,,,,,,,,,,,,,,,,25,26,25,380.8136512079509,382.3071861669887,j,0,0.26579358300659806,darkorange,3,None,0,None,,,,,,,,,test_sept24,,2023-09-24_13h20.41.060,purple_orange_green,2022.2.5,None,
./Stimuli/reg_trials/rand_marblejar_30.jpg,"['darkorange', 'purple', 'darkorange', 'purple', 'darkorange', 'darkorange', 'purple', 'green', 'purple']",./Stimuli/reg_trials/marblejar_right_30.jpg,"['purple', 'purple', 'darkorange', 'darkorange', 'purple', 'purple', 'purple', 'purple', 'purple']",right,-0.25,0,0.5,0,./Stimuli/reg_trials/marblejar_right_30.jpg,"['purple', 'purple', 'darkorange', 'darkorange', 'purple', 'purple', 'purple', 'purple', 'purple']",same,f,task_JarSelection,4,3,2,,,,,0,57,57,105,,,,,,,,,,,,,,,,,,,,,,,,,,,,,,,24,20,20,385.6035016250098,387.0951720000012,f,0,0.528312333044596,purple,2,None,0,None,,,,,,,,,test_sept24,,2023-09-24_13h20.41.060,purple_orange_green,2022.2.5,None,
./Stimuli/reg_trials/marblejar_left_0.jpg,"['purple', 'darkorange', 'purple', 'green', 'purple', 'darkorange', 'darkorange', 'darkorange', 'purple']",./Stimuli/reg_trials/rand_marblejar_112.jpg,"['purple', 'purple', 'purple', 'purple', 'green', 'purple', 'green', 'darkorange', 'green']",left,0.25,0,-0.5,0,./Stimuli/reg_trials/marblejar_left_0.jpg,"['purple', 'darkorange', 'purple', 'green', 'purple', 'darkorange', 'darkorange', 'darkorange', 'purple']",same,f,task_ChangeDetection,4,3,2,,,,,0,58,58,187,,,,,,,,,,,,,,,,,,,,,,,,,,,,,,,24,25,24,390.6661994169699,,None,0,,-1,0,f,1,None,393.64876437501516,1.079198457999155,,,,,,,test_sept24,,2023-09-24_13h20.41.060,purple_orange_green,2022.2.5,None,
./Stimuli/marblejar_28points4.jpg,"['green', 'green', 'darkorange', 'green', 'purple', 'purple', 'darkorange', 'green', 'purple']",./Stimuli/marblejar_28points14.jpg,"['green', 'darkorange', 'darkorange', 'purple', 'darkorange', 'purple', 'green', 'darkorange', 'green']",right,-0.25,0,0.5,0,./Stimuli/marblejar_28points14.jpg,"['green', 'darkorange', 'darkorange', 'purple', 'darkorange', 'purple', 'green', 'darkorange', 'green']",same,f,task_ChangeDetection,4,3,2,,,,,0,59,59,9,,,,,,,,,,,,,,,,,,,,,,,,,,,,,,,28,28,28,396.75535062502604,,None,0,,-1,0,f,1,None,399.74041808303446,1.3644868329865858,,,,,,,test_sept24,,2023-09-24_13h20.41.060,purple_orange_green,2022.2.5,None,
./Stimuli/reg_trials/marblejar_left_45.jpg,"['darkorange', 'darkorange', 'green', 'purple', 'darkorange', 'green', 'darkorange', 'purple', 'darkorange']",./Stimuli/reg_trials/rand_marblejar_157.jpg,"['purple', 'darkorange', 'darkorange', 'darkorange', 'purple', 'darkorange', 'darkorange', 'purple', 'darkorange']",left,0.25,0,-0.5,0,./Stimuli/reg_trials/marblejar3_left_different_45.jpg,"['purple', 'darkorange', 'purple', 'green', 'darkorange', 'darkorange', 'purple', 'purple', 'darkorange']",different,j,task_ChangeDetection,4,3,2,,,,,0,60,60,232,,,,,,,,,,,,,,,,,,,,,,,,,,,,,,,27,24,24,403.1327742499998,,None,0,,-1,0,j,1,None,406.1152674170444,1.8324640409555286,,,,,,,test_sept24,,2023-09-24_13h20.41.060,purple_orange_green,2022.2.5,None,
./Stimuli/reg_trials/marblejar_left_44.jpg,"['darkorange', 'purple', 'darkorange', 'darkorange', 'green', 'purple', 'darkorange', 'darkorange', 'darkorange']",./Stimuli/reg_trials/rand_marblejar_156.jpg,"['darkorange', 'purple', 'purple', 'purple', 'darkorange', 'purple', 'darkorange', 'green', 'green']",left,0.25,0,-0.5,0,./Stimuli/reg_trials/marblejar_left_44.jpg,"['darkorange', 'purple', 'darkorange', 'darkorange', 'green', 'purple', 'darkorange', 'darkorange', 'darkorange']",same,f,task_JarSelection,4,3,2,,,,,0,61,61,231,,,,,,,,,,,,,,,,,,,,,,,,,,,,,,,26,25,26,409.97293929196894,411.460190917016,f,0,0.7853949160780758,darkorange,3,None,0,None,,,,,,,,,test_sept24,,2023-09-24_13h20.41.060,purple_orange_green,2022.2.5,None,
./Stimuli/reg_trials/marblejar_left_84.jpg,"['purple', 'darkorange', 'purple', 'green', 'darkorange', 'darkorange', 'darkorange', 'darkorange', 'purple']",./Stimuli/reg_trials/rand_marblejar_196.jpg,"['purple', 'darkorange', 'purple', 'darkorange', 'purple', 'purple', 'darkorange', 'purple', 'purple']",left,0.25,0,-0.5,0,./Stimuli/reg_trials/marblejar3_left_different_84.jpg,"['darkorange', 'green', 'green', 'purple', 'purple', 'darkorange', 'purple', 'purple', 'purple']",different,j,task_JarSelection,4,3,2,,,,,0,62,62,271,,,,,,,,,,,,,,,,,,,,,,,,,,,,,,,25,21,24,415.27675937500317,416.7739170000423,j,0,0.6461556670255959,darkorange,3,None,0,None,,,,,,,,,test_sept24,,2023-09-24_13h20.41.060,purple_orange_green,2022.2.5,None,
./Stimuli/reg_trials/rand_marblejar_20.jpg,"['purple', 'purple', 'darkorange', 'darkorange', 'purple', 'purple', 'purple', 'purple', 'darkorange']",./Stimuli/reg_trials/marblejar_right_20.jpg,"['darkorange', 'purple', 'purple', 'purple', 'darkorange', 'purple', 'darkorange', 'green', 'purple']",right,-0.25,0,0.5,0,./Stimuli/reg_trials/marblejar3_right_different_20.jpg,"['darkorange', 'darkorange', 'darkorange', 'darkorange', 'purple', 'purple', 'darkorange', 'green', 'purple']",different,j,task_JarSelection,4,3,2,,,,,0,63,63,95,,,,,,,,,,,,,,,,,,,,,,,,,,,,,,,21,23,25,420.43819641694427,421.92728512501344,j,0,0.8915399160468951,purple,2,None,0,None,,,,,,,,,test_sept24,,2023-09-24_13h20.41.060,purple_orange_green,2022.2.5,None,
./Stimuli/marblejar_26points9.jpg,"['darkorange', 'darkorange', 'darkorange', 'purple', 'purple', 'darkorange', 'green', 'green', 'purple']",./Stimuli/marblejar_26points19.jpg,"['darkorange', 'purple', 'darkorange', 'darkorange', 'darkorange', 'purple', 'darkorange', 'green', 'darkorange']",right,-0.25,0,0.5,0,./Stimuli/marblejar_26points29.jpg,"['darkorange', 'green', 'darkorange', 'purple', 'green', 'purple', 'purple', 'darkorange', 'darkorange']",different,j,task_JarSelection,4,3,2,,,,,0,64,64,34,,,,,,,,,,,,,,,,,,,,,,,,,,,,,,,26,26,26,425.8531173749361,427.34601695800666,f,0,0.6566539159975946,purple,2,None,0,None,,,,,,,,,test_sept24,,2023-09-24_13h20.41.060,purple_orange_green,2022.2.5,None,
./Stimuli/reg_trials/rand_marblejar_92.jpg,"['purple', 'green', 'darkorange', 'darkorange', 'darkorange', 'purple', 'purple', 'purple', 'purple']",./Stimuli/reg_trials/marblejar_right_92.jpg,"['green', 'purple', 'darkorange', 'darkorange', 'purple', 'green', 'purple', 'darkorange', 'purple']",right,-0.25,0,0.5,0,./Stimuli/reg_trials/marblejar3_right_different_92.jpg,"['darkorange', 'purple', 'purple', 'green', 'darkorange', 'purple', 'green', 'green', 'darkorange']",different,j,task_ChangeDetection,4,3,2,,,,,0,65,65,167,,,,,,,,,,,,,,,,,,,,,,,,,,,,,,,23,25,27,431.0413379999809,,None,0,,-1,0,j,1,None,434.0313295830274,1.3306356670800596,,,,,,,test_sept24,,2023-09-24_13h20.41.060,purple_orange_green,2022.2.5,None,
./Stimuli/reg_trials/marblejar_left_76.jpg,"['purple', 'green', 'darkorange', 'purple', 'darkorange', 'purple', 'purple', 'darkorange', 'darkorange']",./Stimuli/reg_trials/rand_marblejar_188.jpg,"['purple', 'purple', 'darkorange', 'purple', 'darkorange', 'darkorange', 'darkorange', 'purple', 'green']",left,0.25,0,-0.5,0,./Stimuli/reg_trials/marblejar_left_76.jpg,"['purple', 'green', 'darkorange', 'purple', 'darkorange', 'purple', 'purple', 'darkorange', 'darkorange']",same,f,task_JarSelection,4,3,2,,,,,0,66,66,263,,,,,,,,,,,,,,,,,,,,,,,,,,,,,,,24,24,24,437.3797514999751,438.8737789170118,f,0,0.6765052500413731,darkorange,3,None,0,None,,,,,,,,,test_sept24,,2023-09-24_13h20.41.060,purple_orange_green,2022.2.5,None,
./Stimuli/reg_trials/marblejar_left_102.jpg,"['darkorange', 'green', 'darkorange', 'darkorange', 'darkorange', 'green', 'purple', 'darkorange', 'purple']",./Stimuli/reg_trials/rand_marblejar_214.jpg,"['darkorange', 'darkorange', 'purple', 'darkorange', 'green', 'purple', 'purple', 'purple', 'darkorange']",left,0.25,0,-0.5,0,./Stimuli/reg_trials/marblejar3_left_different_102.jpg,"['purple', 'green', 'green', 'purple', 'darkorange', 'purple', 'purple', 'green', 'purple']",different,j,task_JarSelection,4,3,2,,,,,0,67,67,289,,,,,,,,,,,,,,,,,,,,,,,,,,,,,,,27,24,25,442.57639233302325,444.0737478749361,j,0,0.6789095000131056,purple,2,None,0,None,,,,,,,,,test_sept24,,2023-09-24_13h20.41.060,purple_orange_green,2022.2.5,None,
./Stimuli/marblejar_29points4.jpg,"['purple', 'green', 'darkorange', 'purple', 'green', 'darkorange', 'darkorange', 'green', 'green']",./Stimuli/marblejar_29points9.jpg,"['green', 'purple', 'darkorange', 'darkorange', 'green', 'darkorange', 'darkorange', 'darkorange', 'green']",left,0.25,0,-0.5,0,./Stimuli/marblejar_29points4.jpg,"['purple', 'green', 'darkorange', 'purple', 'green', 'darkorange', 'darkorange', 'green', 'green']",same,f,task_ChangeDetection,4,3,2,,,,,0,68,68,4,,,,,,,,,,,,,,,,,,,,,,,,,,,,,,,29,29,29,447.78014908300247,,None,0,,-1,0,f,1,None,450.76434095797595,0.27631858305539936,,,,,,,test_sept24,,2023-09-24_13h20.41.060,purple_orange_green,2022.2.5,None,
./Stimuli/reg_trials/rand_marblejar_103.jpg,"['green', 'purple', 'darkorange', 'darkorange', 'purple', 'green', 'darkorange', 'green', 'purple']",./Stimuli/reg_trials/marblejar_right_103.jpg,"['green', 'green', 'purple', 'purple', 'purple', 'purple', 'darkorange', 'darkorange', 'green']",right,-0.25,0,0.5,0,./Stimuli/reg_trials/marblejar3_right_different_103.jpg,"['purple', 'darkorange', 'purple', 'green', 'darkorange', 'purple', 'green', 'darkorange', 'green']",different,j,task_JarSelection,4,3,2,,,,,0,69,69,178,,,,,,,,,,,,,,,,,,,,,,,,,,,,,,,27,26,27,453.0742550420109,454.5626102499664,f,0,0.7553333740215749,darkorange,3,None,0,None,,,,,,,,,test_sept24,,2023-09-24_13h20.41.060,purple_orange_green,2022.2.5,None,
./Stimuli/marblejar_22points2.jpg,"['purple', 'green', 'purple', 'purple', 'purple', 'darkorange', 'purple', 'purple', 'darkorange']",./Stimuli/marblejar_22points7.jpg,"['darkorange', 'purple', 'darkorange', 'darkorange', 'purple', 'darkorange', 'purple', 'purple', 'purple']",right,-0.25,0,0.5,0,./Stimuli/marblejar_22points12.jpg,"['darkorange', 'purple', 'darkorange', 'purple', 'purple', 'purple', 'darkorange', 'purple', 'darkorange']",different,j,task_ChangeDetection,4,3,2,,,,,0,70,70,67,,,,,,,,,,,,,,,,,,,,,,,,,,,,,,,22,22,22,458.35148154199123,,None,0,,-1,0,f,0,None,461.33248920796905,1.2929036660352722,,,,,,,test_sept24,,2023-09-24_13h20.41.060,purple_orange_green,2022.2.5,None,
./Stimuli/reg_trials/marblejar_left_4.jpg,"['darkorange', 'darkorange', 'purple', 'purple', 'purple', 'purple', 'purple', 'darkorange', 'darkorange']",./Stimuli/reg_trials/rand_marblejar_116.jpg,"['darkorange', 'darkorange', 'green', 'darkorange', 'purple', 'purple', 'purple', 'purple', 'darkorange']",left,0.25,0,-0.5,0,./Stimuli/reg_trials/marblejar_left_4.jpg,"['darkorange', 'darkorange', 'purple', 'purple', 'purple', 'purple', 'purple', 'darkorange', 'darkorange']",same,f,task_ChangeDetection,4,3,2,,,,,0,71,71,191,,,,,,,,,,,,,,,,,,,,,,,,,,,,,,,22,24,22,464.6627361669671,,None,0,,-1,0,f,1,None,467.64855687494855,0.7636369169922546,,,,,,,test_sept24,,2023-09-24_13h20.41.060,purple_orange_green,2022.2.5,None,
./Stimuli/reg_trials/rand_marblejar_6.jpg,"['purple', 'purple', 'purple', 'purple', 'purple', 'purple', 'purple', 'green', 'purple']",./Stimuli/reg_trials/marblejar_right_6.jpg,"['purple', 'green', 'green', 'darkorange', 'purple', 'darkorange', 'darkorange', 'darkorange', 'darkorange']",right,-0.25,0,0.5,0,./Stimuli/reg_trials/marblejar3_right_different_6.jpg,"['darkorange', 'darkorange', 'darkorange', 'darkorange', 'darkorange', 'darkorange', 'purple', 'darkorange', 'darkorange']",different,j,task_JarSelection,4,3,2,,,,,0,72,72,81,,,,,,,,,,,,,,,,,,,,,,,,,,,,,,,20,27,26,470.43993012502324,471.9281910000136,j,0,0.8451785830548033,darkorange,3,None,0,None,,,,,,,,,test_sept24,,2023-09-24_13h20.41.060,purple_orange_green,2022.2.5,None,
./Stimuli/marblejar_24points8.jpg,"['darkorange', 'purple', 'green', 'green', 'purple', 'purple', 'darkorange', 'purple', 'purple']",./Stimuli/marblejar_24points18.jpg,"['darkorange', 'purple', 'purple', 'darkorange', 'purple', 'purple', 'purple', 'green', 'green']",left,0.25,0,-0.5,0,./Stimuli/marblejar_24points28.jpg,"['purple', 'darkorange', 'green', 'darkorange', 'purple', 'purple', 'darkorange', 'purple', 'darkorange']",different,j,task_ChangeDetection,4,3,2,,,,,0,73,73,53,,,,,,,,,,,,,,,,,,,,,,,,,,,,,,,24,24,24,475.8134030000074,,None,0,,-1,0,f,0,None,478.79856391693465,0.7793055410729721,,,,,,,test_sept24,,2023-09-24_13h20.41.060,purple_orange_green,2022.2.5,None,
./Stimuli/marblejar_25points5.jpg,"['darkorange', 'purple', 'darkorange', 'purple', 'darkorange', 'purple', 'darkorange', 'green', 'darkorange']",./Stimuli/marblejar_25points15.jpg,"['green', 'purple', 'purple', 'purple', 'darkorange', 'darkorange', 'purple', 'green', 'darkorange']",right,-0.25,0,0.5,0,./Stimuli/marblejar_25points15.jpg,"['green', 'purple', 'purple', 'purple', 'darkorange', 'darkorange', 'purple', 'green', 'darkorange']",same,f,task_JarSelection,4,3,2,,,,,0,74,74,40,,,,,,,,,,,,,,,,,,,,,,,,,,,,,,,25,25,25,481.5967560829595,483.090388707933,j,0,0.8589989580214024,darkorange,3,None,0,None,,,,,,,,,test_sept24,,2023-09-24_13h20.41.060,purple_orange_green,2022.2.5,None,
./Stimuli/marblejar_25points2.jpg,"['darkorange', 'purple', 'green', 'purple', 'darkorange', 'darkorange', 'darkorange', 'darkorange', 'purple']",./Stimuli/marblejar_25points12.jpg,"['green', 'purple', 'purple', 'darkorange', 'green', 'darkorange', 'purple', 'darkorange', 'purple']",left,0.25,0,-0.5,0,./Stimuli/marblejar_25points22.jpg,"['purple', 'darkorange', 'green', 'green', 'darkorange', 'darkorange', 'purple', 'purple', 'purple']",different,j,task_ChangeDetection,4,3,2,,,,,0,75,75,37,,,,,,,,,,,,,,,,,,,,,,,,,,,,,,,25,25,25,486.9841506249504,,None,0,,-1,0,j,1,None,489.9651603749953,0.21548329095821828,,,,,,,test_sept24,,2023-09-24_13h20.41.060,purple_orange_green,2022.2.5,None,
./Stimuli/marblejar_24points3.jpg,"['darkorange', 'purple', 'darkorange', 'purple', 'darkorange', 'darkorange', 'darkorange', 'darkorange', 'purple']",./Stimuli/marblejar_24points13.jpg,"['darkorange', 'darkorange', 'darkorange', 'purple', 'purple', 'green', 'purple', 'purple', 'darkorange']",right,-0.25,0,0.5,0,./Stimuli/marblejar_24points23.jpg,"['darkorange', 'darkorange', 'darkorange', 'purple', 'purple', 'darkorange', 'darkorange', 'purple', 'darkorange']",different,j,task_JarSelection,4,3,2,,,,,0,76,76,48,,,,,,,,,,,,,,,,,,,,,,,,,,,,,,,24,24,24,492.20673174993135,493.6955522079952,f,0,0.5582523740595207,purple,2,None,0,None,,,,,,,,,test_sept24,,2023-09-24_13h20.41.060,purple_orange_green,2022.2.5,None,
./Stimuli/reg_trials/marblejar_left_61.jpg,"['purple', 'purple', 'purple', 'darkorange', 'purple', 'green', 'darkorange', 'purple', 'purple']",./Stimuli/reg_trials/rand_marblejar_173.jpg,"['green', 'green', 'darkorange', 'darkorange', 'purple', 'purple', 'purple', 'purple', 'purple']",left,0.25,0,-0.5,0,./Stimuli/reg_trials/marblejar_left_61.jpg,"['purple', 'purple', 'purple', 'darkorange', 'purple', 'green', 'darkorange', 'purple', 'purple']",same,f,task_ChangeDetection,4,3,2,,,,,0,77,77,248,,,,,,,,,,,,,,,,,,,,,,,,,,,,,,,22,24,22,497.3014994999394,,None,0,,-1,0,f,1,None,500.28989658295177,1.336582541000098,,,,,,,test_sept24,,2023-09-24_13h20.41.060,purple_orange_green,2022.2.5,None,
./Stimuli/reg_trials/marblejar_left_24.jpg,"['darkorange', 'darkorange', 'green', 'purple', 'purple', 'purple', 'purple', 'purple', 'green']",./Stimuli/reg_trials/rand_marblejar_136.jpg,"['purple', 'darkorange', 'purple', 'purple', 'green', 'darkorange', 'darkorange', 'purple', 'darkorange']",left,0.25,0,-0.5,0,./Stimuli/reg_trials/marblejar3_left_different_24.jpg,"['green', 'purple', 'purple', 'darkorange', 'green', 'darkorange', 'green', 'darkorange', 'darkorange']",different,j,task_ChangeDetection,4,3,2,,,,,0,78,78,211,,,,,,,,,,,,,,,,,,,,,,,,,,,,,,,24,24,28,503.65530070802197,,None,0,,-1,0,f,0,None,506.640089499997,0.9951705830171704,,,,,,,test_sept24,,2023-09-24_13h20.41.060,purple_orange_green,2022.2.5,None,
./Stimuli/marblejar_30points3.jpg,"['green', 'green', 'purple', 'darkorange', 'darkorange', 'green', 'green', 'purple', 'green']",./Stimuli/marblejar_30points8.jpg,"['green', 'darkorange', 'purple', 'purple', 'darkorange', 'green', 'green', 'green', 'green']",right,-0.25,0,0.5,0,./Stimuli/marblejar_30points13.jpg,"['green', 'darkorange', 'darkorange', 'purple', 'purple', 'green', 'green', 'green', 'green']",different,j,task_ChangeDetection,4,3,2,,,,,0,79,79,73,,,,,,,,,,,,,,,,,,,,,,,,,,,,,,,30,30,30,509.6667776670074,,None,0,,-1,0,j,1,None,512.6484004999511,1.4746825830079615,,,,,,,test_sept24,,2023-09-24_13h20.41.060,purple_orange_green,2022.2.5,None,
./Stimuli/reg_trials/rand_marblejar_50.jpg,"['purple', 'darkorange', 'purple', 'purple', 'purple', 'purple', 'green', 'purple', 'purple']",./Stimuli/reg_trials/marblejar_right_50.jpg,"['purple', 'darkorange', 'darkorange', 'purple', 'green', 'purple', 'purple', 'darkorange', 'purple']",right,-0.25,0,0.5,0,./Stimuli/reg_trials/marblejar_right_50.jpg,"['purple', 'darkorange', 'darkorange', 'purple', 'green', 'purple', 'purple', 'darkorange', 'purple']",same,f,task_JarSelection,4,3,2,,,,,0,80,80,125,,,,,,,,,,,,,,,,,,,,,,,,,,,,,,,21,23,23,516.1405345830135,517.6291559169767,j,0,0.852584291016683,purple,2,None,0,None,,,,,,,,,test_sept24,,2023-09-24_13h20.41.060,purple_orange_green,2022.2.5,None,
./Stimuli/reg_trials/rand_marblejar_15.jpg,"['purple', 'darkorange', 'darkorange', 'green', 'purple', 'purple', 'purple', 'purple', 'purple']",./Stimuli/reg_trials/marblejar_right_15.jpg,"['purple', 'purple', 'purple', 'purple', 'darkorange', 'darkorange', 'green', 'purple', 'green']",right,-0.25,0,0.5,0,./Stimuli/reg_trials/marblejar3_right_different_15.jpg,"['purple', 'green', 'purple', 'green', 'darkorange', 'darkorange', 'darkorange', 'darkorange', 'darkorange']",different,j,task_ChangeDetection,4,3,2,,,,,0,81,81,90,,,,,,,,,,,,,,,,,,,,,,,,,,,,,,,22,24,27,521.5288683329709,,None,0,,-1,0,j,1,None,524.5149023330305,1.0250577919650823,,,,,,,test_sept24,,2023-09-24_13h20.41.060,purple_orange_green,2022.2.5,None,
./Stimuli/reg_trials/rand_marblejar_27.jpg,"['darkorange', 'darkorange', 'purple', 'darkorange', 'darkorange', 'green', 'purple', 'purple', 'purple']",./Stimuli/reg_trials/marblejar_right_27.jpg,"['darkorange', 'darkorange', 'purple', 'darkorange', 'purple', 'green', 'darkorange', 'darkorange', 'darkorange']",right,-0.25,0,0.5,0,./Stimuli/reg_trials/marblejar3_right_different_27.jpg,"['green', 'darkorange', 'darkorange', 'green', 'purple', 'green', 'purple', 'green', 'green']",different,j,task_ChangeDetection,4,3,2,,,,,0,82,82,102,,,,,,,,,,,,,,,,,,,,,,,,,,,,,,,24,26,30,527.5717419999419,,None,0,,-1,0,j,1,None,530.5566494170344,0.9849007079610601,,,,,,,test_sept24,,2023-09-24_13h20.41.060,purple_orange_green,2022.2.5,None,
./Stimuli/marblejar_27points6.jpg,"['green', 'darkorange', 'darkorange', 'green', 'darkorange', 'darkorange', 'purple', 'darkorange', 'purple']",./Stimuli/marblejar_27points16.jpg,"['darkorange', 'purple', 'darkorange', 'purple', 'green', 'darkorange', 'green', 'purple', 'green']",left,0.25,0,-0.5,0,./Stimuli/marblejar_27points6.jpg,"['green', 'darkorange', 'darkorange', 'green', 'darkorange', 'darkorange', 'purple', 'darkorange', 'purple']",same,f,task_ChangeDetection,4,3,2,,,,,0,83,83,21,,,,,,,,,,,,,,,,,,,,,,,,,,,,,,,27,27,27,533.565628124983,,None,0,,-1,0,j,0,None,536.5482890829444,0.9712958330055699,,,,,,,test_sept24,,2023-09-24_13h20.41.060,purple_orange_green,2022.2.5,None,
./Stimuli/marblejar_22points3.jpg,"['purple', 'darkorange', 'purple', 'purple', 'purple', 'darkorange', 'darkorange', 'darkorange', 'purple']",./Stimuli/marblejar_22points8.jpg,"['purple', 'purple', 'purple', 'purple', 'purple', 'green', 'purple', 'darkorange', 'darkorange']",left,0.25,0,-0.5,0,./Stimuli/marblejar_22points13.jpg,"['purple', 'purple', 'purple', 'purple', 'green', 'purple', 'darkorange', 'purple', 'darkorange']",different,j,task_JarSelection,4,3,2,,,,,0,84,84,68,,,,,,,,,,,,,,,,,,,,,,,,,,,,,,,22,22,22,539.5446621669689,541.0401530830422,j,0,1.2947664990788326,darkorange,3,None,0,None,,,,,,,,,test_sept24,,2023-09-24_13h20.41.060,purple_orange_green,2022.2.5,None,
./Stimuli/reg_trials/rand_marblejar_57.jpg,"['darkorange', 'green', 'purple', 'darkorange', 'darkorange', 'green', 'green', 'purple', 'purple']",./Stimuli/reg_trials/marblejar_right_57.jpg,"['green', 'purple', 'purple', 'darkorange', 'purple', 'darkorange', 'darkorange', 'purple', 'green']",right,-0.25,0,0.5,0,./Stimuli/reg_trials/marblejar_right_57.jpg,"['green', 'purple', 'purple', 'darkorange', 'purple', 'darkorange', 'darkorange', 'purple', 'green']",same,f,task_ChangeDetection,4,3,2,,,,,0,85,85,132,,,,,,,,,,,,,,,,,,,,,,,,,,,,,,,27,25,25,545.367367208004,,None,0,,-1,0,f,1,None,548.3468064169865,0.4534912499366328,,,,,,,test_sept24,,2023-09-24_13h20.41.060,purple_orange_green,2022.2.5,None,
./Stimuli/reg_trials/rand_marblejar_89.jpg,"['purple', 'purple', 'purple', 'darkorange', 'darkorange', 'purple', 'green', 'darkorange', 'green']",./Stimuli/reg_trials/marblejar_right_89.jpg,"['purple', 'green', 'purple', 'purple', 'purple', 'green', 'purple', 'darkorange', 'darkorange']",right,-0.25,0,0.5,0,./Stimuli/reg_trials/marblejar3_right_different_89.jpg,"['darkorange', 'darkorange', 'darkorange', 'purple', 'purple', 'purple', 'purple', 'purple', 'darkorange']",different,j,task_JarSelection,4,3,2,,,,,0,86,86,164,,,,,,,,,,,,,,,,,,,,,,,,,,,,,,,25,24,22,550.8255646249745,552.3234562920406,j,0,0.49616533308289945,purple,2,None,0,None,,,,,,,,,test_sept24,,2023-09-24_13h20.41.060,purple_orange_green,2022.2.5,None,
./Stimuli/reg_trials/rand_marblejar_24.jpg,"['purple', 'purple', 'darkorange', 'green', 'darkorange', 'purple', 'green', 'green', 'darkorange']",./Stimuli/reg_trials/marblejar_right_24.jpg,"['purple', 'darkorange', 'purple', 'darkorange', 'darkorange', 'purple', 'green', 'purple', 'green']",right,-0.25,0,0.5,0,./Stimuli/reg_trials/marblejar_right_24.jpg,"['purple', 'darkorange', 'purple', 'darkorange', 'darkorange', 'purple', 'green', 'purple', 'green']",same,f,task_JarSelection,4,3,2,,,,,0,87,87,99,,,,,,,,,,,,,,,,,,,,,,,,,,,,,,,27,25,25,555.8428283330286,557.3399590420304,f,0,0.31346358300652355,darkorange,3,None,0,None,,,,,,,,,test_sept24,,2023-09-24_13h20.41.060,purple_orange_green,2022.2.5,None,
./Stimuli/reg_trials/rand_marblejar_39.jpg,"['darkorange', 'green', 'purple', 'darkorange', 'purple', 'green', 'purple', 'purple', 'darkorange']",./Stimuli/reg_trials/marblejar_right_39.jpg,"['green', 'purple', 'darkorange', 'green', 'darkorange', 'darkorange', 'darkorange', 'darkorange', 'green']",right,-0.25,0,0.5,0,./Stimuli/reg_trials/marblejar3_right_different_39.jpg,"['purple', 'purple', 'purple', 'purple', 'purple', 'darkorange', 'darkorange', 'darkorange', 'purple']",different,j,task_ChangeDetection,4,3,2,,,,,0,88,88,114,,,,,,,,,,,,,,,,,,,,,,,,,,,,,,,25,29,21,560.6797448330326,,None,0,,-1,0,j,1,None,563.6640572079923,1.3368499160278589,,,,,,,test_sept24,,2023-09-24_13h20.41.060,purple_orange_green,2022.2.5,None,
./Stimuli/reg_trials/rand_marblejar_94.jpg,"['green', 'darkorange', 'darkorange', 'darkorange', 'purple', 'darkorange', 'green', 'purple', 'purple']",./Stimuli/reg_trials/marblejar_right_94.jpg,"['purple', 'purple', 'green', 'green', 'darkorange', 'purple', 'purple', 'purple', 'purple']",right,-0.25,0,0.5,0,./Stimuli/reg_trials/marblejar3_right_different_94.jpg,"['purple', 'purple', 'darkorange', 'darkorange', 'darkorange', 'darkorange', 'green', 'darkorange', 'darkorange']",different,j,task_ChangeDetection,4,3,2,,,,,0,89,89,169,,,,,,,,,,,,,,,,,,,,,,,,,,,,,,,26,23,26,567.0375264580362,,None,0,,-1,0,f,0,None,570.0146531249629,0.6861413749866188,,,,,,,test_sept24,,2023-09-24_13h20.41.060,purple_orange_green,2022.2.5,None,
./Stimuli/reg_trials/marblejar_left_47.jpg,"['green', 'purple', 'darkorange', 'darkorange', 'purple', 'darkorange', 'purple', 'green', 'purple']",./Stimuli/reg_trials/rand_marblejar_159.jpg,"['darkorange', 'purple', 'green', 'green', 'darkorange', 'purple', 'darkorange', 'purple', 'purple']",left,0.25,0,-0.5,0,./Stimuli/reg_trials/marblejar_left_47.jpg,"['green', 'purple', 'darkorange', 'darkorange', 'purple', 'darkorange', 'purple', 'green', 'purple']",same,f,task_ChangeDetection,4,3,2,,,,,0,90,90,234,,,,,,,,,,,,,,,,,,,,,,,,,,,,,,,25,25,25,572.7381682919804,,None,0,,-1,0,j,0,None,575.7231592920143,0.8183172920253128,,,,,,,test_sept24,,2023-09-24_13h20.41.060,purple_orange_green,2022.2.5,None,
./Stimuli/marblejar_26points7.jpg,"['darkorange', 'purple', 'green', 'purple', 'purple', 'purple', 'green', 'green', 'darkorange']",./Stimuli/marblejar_26points17.jpg,"['purple', 'green', 'darkorange', 'purple', 'darkorange', 'purple', 'darkorange', 'green', 'darkorange']",right,-0.25,0,0.5,0,./Stimuli/marblejar_26points17.jpg,"['purple', 'green', 'darkorange', 'purple', 'darkorange', 'purple', 'darkorange', 'green', 'darkorange']",same,f,task_JarSelection,4,3,2,,,,,0,91,91,32,,,,,,,,,,,,,,,,,,,,,,,,,,,,,,,26,26,26,578.5574439580087,580.0443393329624,j,0,1.1514860419556499,darkorange,3,None,0,None,,,,,,,,,test_sept24,,2023-09-24_13h20.41.060,purple_orange_green,2022.2.5,None,
./Stimuli/reg_trials/rand_marblejar_70.jpg,"['darkorange', 'purple', 'green', 'green', 'purple', 'purple', 'purple', 'purple', 'purple']",./Stimuli/reg_trials/marblejar_right_70.jpg,"['purple', 'purple', 'darkorange', 'purple', 'purple', 'darkorange', 'green', 'darkorange', 'green']",right,-0.25,0,0.5,0,./Stimuli/reg_trials/marblejar_right_70.jpg,"['purple', 'purple', 'darkorange', 'purple', 'purple', 'darkorange', 'green', 'darkorange', 'green']",same,f,task_JarSelection,4,3,2,,,,,0,92,92,145,,,,,,,,,,,,,,,,,,,,,,,,,,,,,,,23,25,25,584.2367669169325,585.7275269579841,f,0,0.42406454193405807,green,4,None,0,None,,,,,,,,,test_sept24,,2023-09-24_13h20.41.060,purple_orange_green,2022.2.5,None,
./Stimuli/reg_trials/rand_marblejar_31.jpg,"['purple', 'purple', 'purple', 'purple', 'purple', 'darkorange', 'purple', 'purple', 'purple']",./Stimuli/reg_trials/marblejar_right_31.jpg,"['purple', 'darkorange', 'darkorange', 'purple', 'darkorange', 'green', 'darkorange', 'darkorange', 'green']",right,-0.25,0,0.5,0,./Stimuli/reg_trials/marblejar_right_31.jpg,"['purple', 'darkorange', 'darkorange', 'purple', 'darkorange', 'green', 'darkorange', 'darkorange', 'green']",same,f,task_ChangeDetection,4,3,2,,,,,0,93,93,106,,,,,,,,,,,,,,,,,,,,,,,,,,,,,,,19,27,27,589.1904323330382,,None,0,,-1,0,j,0,None,592.1816899999976,0.8103849160252139,,,,,,,test_sept24,,2023-09-24_13h20.41.060,purple_orange_green,2022.2.5,None,
./Stimuli/reg_trials/marblejar_left_27.jpg,"['green', 'darkorange', 'darkorange', 'darkorange', 'darkorange', 'darkorange', 'green', 'darkorange', 'purple']",./Stimuli/reg_trials/rand_marblejar_139.jpg,"['purple', 'darkorange', 'darkorange', 'purple', 'purple', 'purple', 'darkorange', 'purple', 'purple']",left,0.25,0,-0.5,0,./Stimuli/reg_trials/marblejar3_left_different_27.jpg,"['darkorange', 'purple', 'purple', 'purple', 'purple', 'darkorange', 'purple', 'purple', 'darkorange']",different,j,task_JarSelection,4,3,2,,,,,0,94,94,214,,,,,,,,,,,,,,,,,,,,,,,,,,,,,,,28,21,21,595.0240501250373,596.5119457920082,f,0,0.5513523330446333,darkorange,3,None,0,None,,,,,,,,,test_sept24,,2023-09-24_13h20.41.060,purple_orange_green,2022.2.5,None,
./Stimuli/reg_trials/rand_marblejar_32.jpg,"['purple', 'darkorange', 'darkorange', 'purple', 'purple', 'purple', 'purple', 'purple', 'darkorange']",./Stimuli/reg_trials/marblejar_right_32.jpg,"['purple', 'darkorange', 'green', 'purple', 'darkorange', 'green', 'purple', 'darkorange', 'darkorange']",right,-0.25,0,0.5,0,./Stimuli/reg_trials/marblejar_right_32.jpg,"['purple', 'darkorange', 'green', 'purple', 'darkorange', 'green', 'purple', 'darkorange', 'darkorange']",same,f,task_JarSelection,4,3,2,,,,,0,95,95,107,,,,,,,,,,,,,,,,,,,,,,,,,,,,,,,21,26,26,600.1033572499873,601.5952113750391,f,0,3.23110937490128,purple,2,None,0,None,,,,,,,,,test_sept24,,2023-09-24_13h20.41.060,purple_orange_green,2022.2.5,None,
./Stimuli/reg_trials/rand_marblejar_83.jpg,"['purple', 'purple', 'darkorange', 'darkorange', 'purple', 'purple', 'darkorange', 'darkorange', 'green']",./Stimuli/reg_trials/marblejar_right_83.jpg,"['darkorange', 'purple', 'purple', 'green', 'purple', 'darkorange', 'darkorange', 'green', 'purple']",right,-0.25,0,0.5,0,./Stimuli/reg_trials/marblejar_right_83.jpg,"['darkorange', 'purple', 'purple', 'green', 'purple', 'darkorange', 'darkorange', 'green', 'purple']",same,f,task_JarSelection,4,3,2,,,,,0,96,96,158,,,,,,,,,,,,,,,,,,,,,,,,,,,,,,,24,25,25,607.8474452919327,609.3401079169707,j,0,0.32507362391334027,purple,2,None,0,None,,,,,,,,,test_sept24,,2023-09-24_13h20.41.060,purple_orange_green,2022.2.5,None,
./Stimuli/marblejar_28points7.jpg,"['purple', 'purple', 'purple', 'green', 'darkorange', 'green', 'green', 'darkorange', 'green']",./Stimuli/marblejar_28points17.jpg,"['green', 'purple', 'purple', 'darkorange', 'darkorange', 'green', 'darkorange', 'green', 'darkorange']",left,0.25,0,-0.5,0,./Stimuli/marblejar_28points27.jpg,"['purple', 'darkorange', 'green', 'purple', 'darkorange', 'green', 'purple', 'green', 'green']",different,j,task_JarSelection,4,3,2,,,,,0,97,97,12,,,,,,,,,,,,,,,,,,,,,,,,,,,,,,,28,28,28,612.6807830419857,614.173306541983,f,0,0.5045318329939619,green,4,None,0,None,,,,,,,,,test_sept24,,2023-09-24_13h20.41.060,purple_orange_green,2022.2.5,None,
./Stimuli/reg_trials/rand_marblejar_56.jpg,"['purple', 'green', 'purple', 'green', 'purple', 'darkorange', 'purple', 'purple', 'darkorange']",./Stimuli/reg_trials/marblejar_right_56.jpg,"['purple', 'purple', 'purple', 'purple', 'purple', 'purple', 'darkorange', 'darkorange', 'darkorange']",right,-0.25,0,0.5,0,./Stimuli/reg_trials/marblejar3_right_different_56.jpg,"['green', 'purple', 'darkorange', 'purple', 'green', 'green', 'darkorange', 'darkorange', 'purple']",different,j,task_JarSelection,4,3,2,,,,,0,98,98,131,,,,,,,,,,,,,,,,,,,,,,,,,,,,,,,24,21,27,617.6974918330088,619.1951651669806,f,0,0.5999852500390261,purple,2,None,0,None,,,,,,,,,test_sept24,,2023-09-24_13h20.41.060,purple_orange_green,2022.2.5,None,
./Stimuli/reg_trials/marblejar_left_83.jpg,"['purple', 'purple', 'purple', 'purple', 'purple', 'darkorange', 'purple', 'purple', 'purple']",./Stimuli/reg_trials/rand_marblejar_195.jpg,"['darkorange', 'purple', 'purple', 'darkorange', 'darkorange', 'darkorange', 'purple', 'darkorange', 'purple']",left,0.25,0,-0.5,0,./Stimuli/reg_trials/marblejar3_left_different_83.jpg,"['purple', 'purple', 'darkorange', 'darkorange', 'darkorange', 'green', 'darkorange', 'purple', 'darkorange']",different,j,task_ChangeDetection,4,3,2,,,,,0,99,99,270,,,,,,,,,,,,,,,,,,,,,,,,,,,,,,,19,23,25,622.8299434999935,,None,0,,-1,0,j,1,None,625.8151505419519,0.9026273740455508,,,,,,,test_sept24,,2023-09-24_13h20.41.060,purple_orange_green,2022.2.5,None,
./Stimuli/marblejar_23points0.jpg,"['purple', 'darkorange', 'purple', 'darkorange', 'darkorange', 'purple', 'purple', 'darkorange', 'darkorange']",./Stimuli/marblejar_23points10.jpg,"['darkorange', 'darkorange', 'purple', 'purple', 'darkorange', 'purple', 'purple', 'darkorange', 'darkorange']",left,0.25,0,-0.5,0,./Stimuli/marblejar_23points0.jpg,"['purple', 'darkorange', 'purple', 'darkorange', 'darkorange', 'purple', 'purple', 'darkorange', 'darkorange']",same,f,task_ChangeDetection,4,3,2,,,,,0,100,100,55,,,,,,,,,,,,,,,,,,,,,,,,,,,,,,,23,23,23,628.7546272500185,,None,0,,-1,0,j,0,None,631.7396912080003,1.4460881249979138,,,,,,,test_sept24,,2023-09-24_13h20.41.060,purple_orange_green,2022.2.5,None,
./Stimuli/reg_trials/marblejar_left_8.jpg,"['green', 'purple', 'purple', 'purple', 'darkorange', 'green', 'purple', 'green', 'green']",./Stimuli/reg_trials/rand_marblejar_120.jpg,"['darkorange', 'darkorange', 'darkorange', 'purple', 'green', 'green', 'purple', 'purple', 'green']",left,0.25,0,-0.5,0,./Stimuli/reg_trials/marblejar3_left_different_8.jpg,"['darkorange', 'darkorange', 'purple', 'purple', 'darkorange', 'darkorange', 'purple', 'darkorange', 'purple']",different,j,task_ChangeDetection,4,3,2,,,,,0,101,101,195,,,,,,,,,,,,,,,,,,,,,,,,,,,,,,,27,27,23,635.2149613329675,,None,0,,-1,0,j,1,None,638.1980459169718,0.6126117079984397,,,,,,,test_sept24,,2023-09-24_13h20.41.060,purple_orange_green,2022.2.5,None,
./Stimuli/reg_trials/rand_marblejar_9.jpg,"['darkorange', 'purple', 'darkorange', 'purple', 'purple', 'green', 'purple', 'purple', 'purple']",./Stimuli/reg_trials/marblejar_right_9.jpg,"['purple', 'purple', 'darkorange', 'darkorange', 'darkorange', 'purple', 'purple', 'green', 'darkorange']",right,-0.25,0,0.5,0,./Stimuli/reg_trials/marblejar_right_9.jpg,"['purple', 'purple', 'darkorange', 'darkorange', 'darkorange', 'purple', 'purple', 'green', 'darkorange']",same,f,task_ChangeDetection,4,3,2,,,,,0,102,102,84,,,,,,,,,,,,,,,,,,,,,,,,,,,,,,,22,24,24,640.8486745420378,,None,0,,-1,0,j,0,None,643.8313739580335,0.40235629095695913,,,,,,,test_sept24,,2023-09-24_13h20.41.060,purple_orange_green,2022.2.5,None,
./Stimuli/reg_trials/rand_marblejar_91.jpg,"['darkorange', 'green', 'darkorange', 'darkorange', 'darkorange', 'purple', 'purple', 'purple', 'purple']",./Stimuli/reg_trials/marblejar_right_91.jpg,"['purple', 'darkorange', 'purple', 'purple', 'purple', 'purple', 'green', 'purple', 'darkorange']",right,-0.25,0,0.5,0,./Stimuli/reg_trials/marblejar_right_91.jpg,"['purple', 'darkorange', 'purple', 'purple', 'purple', 'purple', 'green', 'purple', 'darkorange']",same,f,task_JarSelection,4,3,2,,,,,0,103,103,166,,,,,,,,,,,,,,,,,,,,,,,,,,,,,,,24,22,22,646.2615143329604,647.7562919580378,f,0,0.47813883295748383,darkorange,3,None,0,None,,,,,,,,,test_sept24,,2023-09-24_13h20.41.060,purple_orange_green,2022.2.5,None,
./Stimuli/marblejar_22points0.jpg,"['darkorange', 'darkorange', 'darkorange', 'purple', 'purple', 'purple', 'purple', 'darkorange', 'purple']",./Stimuli/marblejar_22points5.jpg,"['purple', 'darkorange', 'purple', 'darkorange', 'purple', 'purple', 'darkorange', 'darkorange', 'purple']",right,-0.25,0,0.5,0,./Stimuli/marblejar_22points5.jpg,"['purple', 'darkorange', 'purple', 'darkorange', 'purple', 'purple', 'darkorange', 'darkorange', 'purple']",same,f,task_ChangeDetection,4,3,2,,,,,0,104,104,65,,,,,,,,,,,,,,,,,,,,,,,,,,,,,,,22,22,22,651.2666625829879,,None,0,,-1,0,j,0,None,654.24724770803,0.5578252500854433,,,,,,,test_sept24,,2023-09-24_13h20.41.060,purple_orange_green,2022.2.5,None,
./Stimuli/reg_trials/rand_marblejar_77.jpg,"['purple', 'purple', 'green', 'green', 'darkorange', 'purple', 'darkorange', 'purple', 'darkorange']",./Stimuli/reg_trials/marblejar_right_77.jpg,"['green', 'purple', 'purple', 'purple', 'darkorange', 'purple', 'green', 'purple', 'green']",right,-0.25,0,0.5,0,./Stimuli/reg_trials/marblejar_right_77.jpg,"['green', 'purple', 'purple', 'purple', 'darkorange', 'purple', 'green', 'purple', 'green']",same,f,task_JarSelection,4,3,2,,,,,0,105,105,152,,,,,,,,,,,,,,,,,,,,,,,,,,,,,,,25,25,25,656.8286613749806,658.3232204579981,f,0,0.5709227490006015,purple,2,None,0,None,,,,,,,,,test_sept24,,2023-09-24_13h20.41.060,purple_orange_green,2022.2.5,None,
./Stimuli/reg_trials/rand_marblejar_40.jpg,"['darkorange', 'darkorange', 'darkorange', 'green', 'green', 'purple', 'purple', 'purple', 'purple']",./Stimuli/reg_trials/marblejar_right_40.jpg,"['purple', 'green', 'darkorange', 'purple', 'purple', 'darkorange', 'purple', 'darkorange', 'purple']",right,-0.25,0,0.5,0,./Stimuli/reg_trials/marblejar3_right_different_40.jpg,"['purple', 'purple', 'green', 'purple', 'darkorange', 'darkorange', 'darkorange', 'green', 'darkorange']",different,j,task_JarSelection,4,3,2,,,,,0,106,106,115,,,,,,,,,,,,,,,,,,,,,,,,,,,,,,,25,23,26,661.9197100829333,663.4115999999922,f,0,0.630346207995899,darkorange,3,None,0,None,,,,,,,,,test_sept24,,2023-09-24_13h20.41.060,purple_orange_green,2022.2.5,None,
./Stimuli/reg_trials/rand_marblejar_52.jpg,"['purple', 'purple', 'darkorange', 'purple', 'green', 'purple', 'purple', 'green', 'purple']",./Stimuli/reg_trials/marblejar_right_52.jpg,"['purple', 'purple', 'darkorange', 'purple', 'green', 'darkorange', 'darkorange', 'green', 'purple']",right,-0.25,0,0.5,0,./Stimuli/reg_trials/marblejar3_right_different_52.jpg,"['green', 'green', 'darkorange', 'darkorange', 'green', 'purple', 'darkorange', 'darkorange', 'darkorange']",different,j,task_JarSelection,4,3,2,,,,,0,107,107,127,,,,,,,,,,,,,,,,,,,,,,,,,,,,,,,23,25,29,667.063854582957,668.5565045829862,j,0,1.2933869999833405,purple,2,None,0,None,,,,,,,,,test_sept24,,2023-09-24_13h20.41.060,purple_orange_green,2022.2.5,None,
./Stimuli/reg_trials/marblejar_left_3.jpg,"['purple', 'darkorange', 'purple', 'darkorange', 'purple', 'purple', 'purple', 'darkorange', 'purple']",./Stimuli/reg_trials/rand_marblejar_115.jpg,"['green', 'green', 'green', 'purple', 'purple', 'purple', 'purple', 'purple', 'purple']",left,0.25,0,-0.5,0,./Stimuli/reg_trials/marblejar3_left_different_3.jpg,"['green', 'darkorange', 'darkorange', 'darkorange', 'purple', 'darkorange', 'purple', 'darkorange', 'darkorange']",different,j,task_JarSelection,4,3,2,,,,,0,108,108,190,,,,,,,,,,,,,,,,,,,,,,,,,,,,,,,21,24,26,672.8646510830149,674.3612032079836,j,0,0.7866082079708576,green,4,None,0,None,,,,,,,,,test_sept24,,2023-09-24_13h20.41.060,purple_orange_green,2022.2.5,None,
./Stimuli/marblejar_27points4.jpg,"['darkorange', 'green', 'purple', 'darkorange', 'purple', 'darkorange', 'green', 'purple', 'green']",./Stimuli/marblejar_27points14.jpg,"['darkorange', 'purple', 'green', 'green', 'purple', 'green', 'purple', 'purple', 'green']",right,-0.25,0,0.5,0,./Stimuli/marblejar_27points24.jpg,"['green', 'purple', 'purple', 'purple', 'green', 'purple', 'green', 'darkorange', 'green']",different,j,task_ChangeDetection,4,3,2,,,,,0,109,109,19,,,,,,,,,,,,,,,,,,,,,,,,,,,,,,,27,27,27,678.179669791949,,None,0,,-1,0,f,0,None,681.1643848749809,1.1641596249537542,,,,,,,test_sept24,,2023-09-24_13h20.41.060,purple_orange_green,2022.2.5,None,
./Stimuli/reg_trials/marblejar_left_58.jpg,"['purple', 'green', 'green', 'purple', 'darkorange', 'darkorange', 'purple', 'purple', 'darkorange']",./Stimuli/reg_trials/rand_marblejar_170.jpg,"['purple', 'darkorange', 'darkorange', 'darkorange', 'darkorange', 'darkorange', 'darkorange', 'purple', 'darkorange']",left,0.25,0,-0.5,0,./Stimuli/reg_trials/marblejar_left_58.jpg,"['purple', 'green', 'green', 'purple', 'darkorange', 'darkorange', 'purple', 'purple', 'darkorange']",same,f,task_JarSelection,4,3,2,,,,,0,110,110,245,,,,,,,,,,,,,,,,,,,,,,,,,,,,,,,25,25,25,684.3553415000206,685.8443975419505,j,0,0.6254688329063356,darkorange,3,None,0,None,,,,,,,,,test_sept24,,2023-09-24_13h20.41.060,purple_orange_green,2022.2.5,None,
./Stimuli/reg_trials/marblejar_left_97.jpg,"['darkorange', 'purple', 'purple', 'purple', 'darkorange', 'darkorange', 'purple', 'purple', 'green']",./Stimuli/reg_trials/rand_marblejar_209.jpg,"['purple', 'darkorange', 'darkorange', 'purple', 'purple', 'darkorange', 'darkorange', 'darkorange', 'darkorange']",left,0.25,0,-0.5,0,./Stimuli/reg_trials/marblejar_left_97.jpg,"['darkorange', 'purple', 'purple', 'purple', 'darkorange', 'darkorange', 'purple', 'purple', 'green']",same,f,task_ChangeDetection,4,3,2,,,,,0,111,111,284,,,,,,,,,,,,,,,,,,,,,,,,,,,,,,,23,24,23,689.511010749964,,None,0,,-1,0,f,1,None,692.4973425830249,0.6127534169936553,,,,,,,test_sept24,,2023-09-24_13h20.41.060,purple_orange_green,2022.2.5,None,
./Stimuli/reg_trials/marblejar_left_37.jpg,"['purple', 'darkorange', 'purple', 'purple', 'darkorange', 'green', 'purple', 'purple', 'darkorange']",./Stimuli/reg_trials/rand_marblejar_149.jpg,"['purple', 'darkorange', 'darkorange', 'darkorange', 'green', 'green', 'darkorange', 'purple', 'purple']",left,0.25,0,-0.5,0,./Stimuli/reg_trials/marblejar_left_37.jpg,"['purple', 'darkorange', 'purple', 'purple', 'darkorange', 'green', 'purple', 'purple', 'darkorange']",same,f,task_JarSelection,4,3,2,,,,,0,112,112,224,,,,,,,,,,,,,,,,,,,,,,,,,,,,,,,23,26,23,695.1300544169499,696.6263796249405,f,0,0.6176940409932286,purple,2,None,0,None,,,,,,,,,test_sept24,,2023-09-24_13h20.41.060,purple_orange_green,2022.2.5,None,
./Stimuli/marblejar_25points9.jpg,"['darkorange', 'darkorange', 'darkorange', 'purple', 'darkorange', 'purple', 'purple', 'green', 'darkorange']",./Stimuli/marblejar_25points19.jpg,"['darkorange', 'green', 'darkorange', 'darkorange', 'purple', 'darkorange', 'darkorange', 'purple', 'purple']",left,0.25,0,-0.5,0,./Stimuli/marblejar_25points9.jpg,"['darkorange', 'darkorange', 'darkorange', 'purple', 'darkorange', 'purple', 'purple', 'green', 'darkorange']",same,f,task_JarSelection,4,3,2,,,,,0,113,113,44,,,,,,,,,,,,,,,,,,,,,,,,,,,,,,,25,25,25,700.2762284169439,701.7728602079442,f,0,0.3848059580195695,purple,2,None,0,None,,,,,,,,,test_sept24,,2023-09-24_13h20.41.060,purple_orange_green,2022.2.5,None,
./Stimuli/reg_trials/marblejar_left_108.jpg,"['purple', 'green', 'purple', 'purple', 'darkorange', 'darkorange', 'darkorange', 'purple', 'purple']",./Stimuli/reg_trials/rand_marblejar_220.jpg,"['purple', 'purple', 'purple', 'green', 'purple', 'darkorange', 'darkorange', 'green', 'green']",left,0.25,0,-0.5,0,./Stimuli/reg_trials/marblejar3_left_different_108.jpg,"['green', 'darkorange', 'green', 'darkorange', 'darkorange', 'purple', 'green', 'green', 'green']",different,j,task_JarSelection,4,3,2,,,,,0,114,114,295,,,,,,,,,,,,,,,,,,,,,,,,,,,,,,,23,26,31,705.1820831670193,706.6773820000235,j,0,0.28772279201075435,purple,2,None,0,None,,,,,,,,,test_sept24,,2023-09-24_13h20.41.060,purple_orange_green,2022.2.5,None,
./Stimuli/reg_trials/rand_marblejar_2.jpg,"['purple', 'purple', 'darkorange', 'purple', 'green', 'green', 'green', 'purple', 'purple']",./Stimuli/reg_trials/marblejar_right_2.jpg,"['purple', 'darkorange', 'darkorange', 'purple', 'darkorange', 'green', 'purple', 'purple', 'purple']",right,-0.25,0,0.5,0,./Stimuli/reg_trials/marblejar3_right_different_2.jpg,"['darkorange', 'darkorange', 'darkorange', 'darkorange', 'purple', 'purple', 'purple', 'darkorange', 'green']",different,j,task_JarSelection,4,3,2,,,,,0,115,115,77,,,,,,,,,,,,,,,,,,,,,,,,,,,,,,,25,23,25,709.9807796670357,711.4729480829556,j,0,0.5243192081106827,darkorange,3,None,0,None,,,,,,,,,test_sept24,,2023-09-24_13h20.41.060,purple_orange_green,2022.2.5,None,
./Stimuli/marblejar_23points3.jpg,"['green', 'purple', 'purple', 'darkorange', 'purple', 'purple', 'purple', 'darkorange', 'darkorange']",./Stimuli/marblejar_23points13.jpg,"['green', 'purple', 'green', 'purple', 'darkorange', 'purple', 'purple', 'purple', 'purple']",right,-0.25,0,0.5,0,./Stimuli/marblejar_23points23.jpg,"['green', 'purple', 'darkorange', 'purple', 'purple', 'green', 'purple', 'purple', 'purple']",different,j,task_JarSelection,4,3,2,,,,,0,116,116,58,,,,,,,,,,,,,,,,,,,,,,,,,,,,,,,23,23,23,715.0195458329981,716.5108747079503,f,0,0.4331825829576701,darkorange,3,None,0,None,,,,,,,,,test_sept24,,2023-09-24_13h20.41.060,purple_orange_green,2022.2.5,None,
./Stimuli/reg_trials/marblejar_left_60.jpg,"['darkorange', 'purple', 'purple', 'purple', 'darkorange', 'purple', 'purple', 'purple', 'purple']",./Stimuli/reg_trials/rand_marblejar_172.jpg,"['darkorange', 'green', 'purple', 'purple', 'purple', 'purple', 'purple', 'darkorange', 'darkorange']",left,0.25,0,-0.5,0,./Stimuli/reg_trials/marblejar_left_60.jpg,"['darkorange', 'purple', 'purple', 'purple', 'darkorange', 'purple', 'purple', 'purple', 'purple']",same,f,task_JarSelection,4,3,2,,,,,0,117,117,247,,,,,,,,,,,,,,,,,,,,,,,,,,,,,,,20,23,20,719.9633909580298,721.4559297920205,j,0,0.3990374159766361,purple,2,None,0,None,,,,,,,,,test_sept24,,2023-09-24_13h20.41.060,purple_orange_green,2022.2.5,None,
./Stimuli/reg_trials/marblejar_left_62.jpg,"['purple', 'darkorange', 'green', 'darkorange', 'purple', 'purple', 'green', 'purple', 'purple']",./Stimuli/reg_trials/rand_marblejar_174.jpg,"['green', 'purple', 'purple', 'darkorange', 'green', 'purple', 'darkorange', 'purple', 'darkorange']",left,0.25,0,-0.5,0,./Stimuli/reg_trials/marblejar3_left_different_62.jpg,"['purple', 'darkorange', 'purple', 'darkorange', 'darkorange', 'purple', 'darkorange', 'purple', 'purple']",different,j,task_JarSelection,4,3,2,,,,,0,118,118,249,,,,,,,,,,,,,,,,,,,,,,,,,,,,,,,24,25,22,724.8697212500265,726.3615940830205,f,0,0.5292494159657508,purple,2,None,0,None,,,,,,,,,test_sept24,,2023-09-24_13h20.41.060,purple_orange_green,2022.2.5,None,
./Stimuli/marblejar_23points4.jpg,"['purple', 'green', 'purple', 'purple', 'purple', 'darkorange', 'darkorange', 'darkorange', 'purple']",./Stimuli/marblejar_23points14.jpg,"['purple', 'purple', 'green', 'purple', 'purple', 'darkorange', 'darkorange', 'purple', 'darkorange']",right,-0.25,0,0.5,0,./Stimuli/marblejar_23points14.jpg,"['purple', 'purple', 'green', 'purple', 'purple', 'darkorange', 'darkorange', 'purple', 'darkorange']",same,f,task_ChangeDetection,4,3,2,,,,,0,119,119,59,,,,,,,,,,,,,,,,,,,,,,,,,,,,,,,23,23,23,729.9235502079828,,None,0,,-1,0,j,0,None,732.9146404169733,1.3994216660503298,,,,,,,test_sept24,,2023-09-24_13h20.41.060,purple_orange_green,2022.2.5,None,
./Stimuli/reg_trials/rand_marblejar_74.jpg,"['darkorange', 'green', 'purple', 'purple', 'darkorange', 'purple', 'green', 'purple', 'green']",./Stimuli/reg_trials/marblejar_right_74.jpg,"['green', 'purple', 'darkorange', 'green', 'purple', 'green', 'purple', 'darkorange', 'darkorange']",right,-0.25,0,0.5,0,./Stimuli/reg_trials/marblejar3_right_different_74.jpg,"['purple', 'purple', 'darkorange', 'purple', 'purple', 'darkorange', 'purple', 'darkorange', 'darkorange']",different,j,task_JarSelection,4,3,2,,,,,0,120,120,149,,,,,,,,,,,,,,,,,,,,,,,,,,,,,,,26,27,22,736.3449350829469,737.8394821250113,j,0,1.127845957991667,darkorange,3,None,0,None,,,,,,,,,test_sept24,,2023-09-24_13h20.41.060,purple_orange_green,2022.2.5,None,
./Stimuli/reg_trials/marblejar_left_70.jpg,"['purple', 'purple', 'darkorange', 'purple', 'purple', 'purple', 'green', 'darkorange', 'purple']",./Stimuli/reg_trials/rand_marblejar_182.jpg,"['purple', 'purple', 'darkorange', 'purple', 'darkorange', 'purple', 'darkorange', 'darkorange', 'purple']",left,0.25,0,-0.5,0,./Stimuli/reg_trials/marblejar3_left_different_70.jpg,"['purple', 'purple', 'purple', 'purple', 'purple', 'darkorange', 'purple', 'green', 'darkorange']",different,j,task_JarSelection,4,3,2,,,,,0,121,121,257,,,,,,,,,,,,,,,,,,,,,,,,,,,,,,,22,22,22,742.003588667023,743.494613292045,f,0,0.5055789989419281,darkorange,3,None,0,None,,,,,,,,,test_sept24,,2023-09-24_13h20.41.060,purple_orange_green,2022.2.5,None,
./Stimuli/reg_trials/marblejar_left_78.jpg,"['purple', 'purple', 'purple', 'green', 'purple', 'darkorange', 'purple', 'darkorange', 'darkorange']",./Stimuli/reg_trials/rand_marblejar_190.jpg,"['purple', 'purple', 'purple', 'purple', 'purple', 'darkorange', 'purple', 'darkorange', 'purple']",left,0.25,0,-0.5,0,./Stimuli/reg_trials/marblejar3_left_different_78.jpg,"['purple', 'green', 'purple', 'darkorange', 'green', 'purple', 'darkorange', 'purple', 'darkorange']",different,j,task_JarSelection,4,3,2,,,,,0,122,122,265,,,,,,,,,,,,,,,,,,,,,,,,,,,,,,,23,20,25,747.0204676249996,748.5116051669465,f,0,0.3055823330068961,purple,2,None,0,None,,,,,,,,,test_sept24,,2023-09-24_13h20.41.060,purple_orange_green,2022.2.5,None,
./Stimuli/reg_trials/marblejar_left_41.jpg,"['purple', 'darkorange', 'green', 'darkorange', 'green', 'darkorange', 'purple', 'purple', 'darkorange']",./Stimuli/reg_trials/rand_marblejar_153.jpg,"['darkorange', 'purple', 'green', 'darkorange', 'purple', 'purple', 'purple', 'purple', 'darkorange']",left,0.25,0,-0.5,0,./Stimuli/reg_trials/marblejar3_left_different_41.jpg,"['green', 'darkorange', 'green', 'darkorange', 'green', 'green', 'green', 'purple', 'purple']",different,j,task_ChangeDetection,4,3,2,,,,,0,123,123,228,,,,,,,,,,,,,,,,,,,,,,,,,,,,,,,26,23,30,751.8569062079769,,None,0,,-1,0,j,1,None,754.8466543749673,0.43833933293353766,,,,,,,test_sept24,,2023-09-24_13h20.41.060,purple_orange_green,2022.2.5,None,
./Stimuli/reg_trials/marblejar_left_86.jpg,"['purple', 'green', 'purple', 'green', 'green', 'purple', 'purple', 'darkorange', 'darkorange']",./Stimuli/reg_trials/rand_marblejar_198.jpg,"['purple', 'green', 'purple', 'purple', 'darkorange', 'purple', 'purple', 'purple', 'purple']",left,0.25,0,-0.5,0,./Stimuli/reg_trials/marblejar_left_86.jpg,"['purple', 'green', 'purple', 'green', 'green', 'purple', 'purple', 'darkorange', 'darkorange']",same,f,task_JarSelection,4,3,2,,,,,0,124,124,273,,,,,,,,,,,,,,,,,,,,,,,,,,,,,,,26,21,26,757.3062370830448,758.7939899170306,f,0,0.6081906239269301,purple,2,None,0,None,,,,,,,,,test_sept24,,2023-09-24_13h20.41.060,purple_orange_green,2022.2.5,None,
./Stimuli/marblejar_24points7.jpg,"['purple', 'darkorange', 'purple', 'darkorange', 'purple', 'purple', 'green', 'darkorange', 'darkorange']",./Stimuli/marblejar_24points17.jpg,"['darkorange', 'green', 'darkorange', 'darkorange', 'purple', 'darkorange', 'purple', 'purple', 'purple']",left,0.25,0,-0.5,0,./Stimuli/marblejar_24points27.jpg,"['green', 'purple', 'purple', 'darkorange', 'darkorange', 'green', 'purple', 'purple', 'purple']",different,j,task_JarSelection,4,3,2,,,,,0,125,125,52,,,,,,,,,,,,,,,,,,,,,,,,,,,,,,,24,24,24,762.4353153329575,763.9275847499957,j,0,0.5475367910694331,darkorange,3,None,0,None,,,,,,,,,test_sept24,,2023-09-24_13h20.41.060,purple_orange_green,2022.2.5,None,
./Stimuli/reg_trials/rand_marblejar_111.jpg,"['darkorange', 'darkorange', 'green', 'darkorange', 'darkorange', 'green', 'darkorange', 'darkorange', 'purple']",./Stimuli/reg_trials/marblejar_right_111.jpg,"['purple', 'green', 'darkorange', 'purple', 'darkorange', 'green', 'purple', 'purple', 'purple']",right,-0.25,0,0.5,0,./Stimuli/reg_trials/marblejar_right_111.jpg,"['purple', 'green', 'darkorange', 'purple', 'darkorange', 'green', 'purple', 'purple', 'purple']",same,f,task_JarSelection,4,3,2,,,,,0,126,126,186,,,,,,,,,,,,,,,,,,,,,,,,,,,,,,,28,24,24,767.499088624958,768.9941893329378,f,0,0.42161470802966505,darkorange,3,None,0,None,,,,,,,,,test_sept24,,2023-09-24_13h20.41.060,purple_orange_green,2022.2.5,None,
./Stimuli/marblejar_25points6.jpg,"['darkorange', 'darkorange', 'purple', 'purple', 'darkorange', 'green', 'purple', 'purple', 'green']",./Stimuli/marblejar_25points16.jpg,"['purple', 'purple', 'green', 'green', 'darkorange', 'purple', 'darkorange', 'darkorange', 'purple']",right,-0.25,0,0.5,0,./Stimuli/marblejar_25points26.jpg,"['darkorange', 'darkorange', 'darkorange', 'darkorange', 'darkorange', 'purple', 'purple', 'darkorange', 'darkorange']",different,j,task_ChangeDetection,4,3,2,,,,,0,127,127,41,,,,,,,,,,,,,,,,,,,,,,,,,,,,,,,25,25,25,772.4391199579695,,None,0,,-1,0,j,1,None,775.4301909169881,0.46888591698370874,,,,,,,test_sept24,,2023-09-24_13h20.41.060,purple_orange_green,2022.2.5,None,
./Stimuli/reg_trials/marblejar_left_31.jpg,"['darkorange', 'purple', 'darkorange', 'green', 'darkorange', 'purple', 'purple', 'purple', 'purple']",./Stimuli/reg_trials/rand_marblejar_143.jpg,"['purple', 'green', 'darkorange', 'purple', 'darkorange', 'green', 'purple', 'purple', 'purple']",left,0.25,0,-0.5,0,./Stimuli/reg_trials/marblejar3_left_different_31.jpg,"['purple', 'green', 'darkorange', 'darkorange', 'purple', 'green', 'darkorange', 'green', 'green']",different,j,task_JarSelection,4,3,2,,,,,0,128,128,218,,,,,,,,,,,,,,,,,,,,,,,,,,,,,,,23,24,29,777.9269498749636,779.422599292011,j,0,0.534650707966648,green,4,None,0,None,,,,,,,,,test_sept24,,2023-09-24_13h20.41.060,purple_orange_green,2022.2.5,None,
./Stimuli/marblejar_28points8.jpg,"['green', 'darkorange', 'darkorange', 'purple', 'darkorange', 'darkorange', 'green', 'green', 'purple']",./Stimuli/marblejar_28points18.jpg,"['purple', 'green', 'purple', 'green', 'darkorange', 'green', 'purple', 'darkorange', 'green']",left,0.25,0,-0.5,0,./Stimuli/marblejar_28points28.jpg,"['darkorange', 'darkorange', 'darkorange', 'green', 'green', 'green', 'purple', 'purple', 'darkorange']",different,j,task_ChangeDetection,4,3,2,,,,,0,129,129,13,,,,,,,,,,,,,,,,,,,,,,,,,,,,,,,28,28,28,783.0002308749827,,None,0,,-1,0,j,1,None,785.9891040419461,0.46369474998209625,,,,,,,test_sept24,,2023-09-24_13h20.41.060,purple_orange_green,2022.2.5,None,
./Stimuli/reg_trials/marblejar_left_94.jpg,"['purple', 'purple', 'purple', 'darkorange', 'purple', 'darkorange', 'darkorange', 'darkorange', 'purple']",./Stimuli/reg_trials/rand_marblejar_206.jpg,"['darkorange', 'green', 'purple', 'darkorange', 'purple', 'purple', 'purple', 'green', 'purple']",left,0.25,0,-0.5,0,./Stimuli/reg_trials/marblejar3_left_different_94.jpg,"['purple', 'darkorange', 'green', 'darkorange', 'green', 'darkorange', 'darkorange', 'darkorange', 'purple']",different,j,task_JarSelection,4,3,2,,,,,0,130,130,281,,,,,,,,,,,,,,,,,,,,,,,,,,,,,,,22,24,27,788.4772094580112,789.9727204999654,j,0,0.31551370793022215,purple,2,None,0,None,,,,,,,,,test_sept24,,2023-09-24_13h20.41.060,purple_orange_green,2022.2.5,None,
./Stimuli/marblejar_26points8.jpg,"['darkorange', 'green', 'purple', 'darkorange', 'purple', 'darkorange', 'darkorange', 'purple', 'green']",./Stimuli/marblejar_26points18.jpg,"['darkorange', 'purple', 'purple', 'green', 'green', 'darkorange', 'purple', 'darkorange', 'darkorange']",right,-0.25,0,0.5,0,./Stimuli/marblejar_26points28.jpg,"['purple', 'darkorange', 'green', 'purple', 'darkorange', 'darkorange', 'purple', 'darkorange', 'green']",different,j,task_ChangeDetection,4,3,2,,,,,0,131,131,33,,,,,,,,,,,,,,,,,,,,,,,,,,,,,,,26,26,26,793.317540292046,,None,0,,-1,0,j,1,None,796.3058005829807,1.1437777909450233,,,,,,,test_sept24,,2023-09-24_13h20.41.060,purple_orange_green,2022.2.5,None,
./Stimuli/reg_trials/marblejar_left_72.jpg,"['green', 'purple', 'darkorange', 'purple', 'darkorange', 'purple', 'darkorange', 'darkorange', 'purple']",./Stimuli/reg_trials/rand_marblejar_184.jpg,"['purple', 'green', 'purple', 'darkorange', 'purple', 'green', 'darkorange', 'purple', 'purple']",left,0.25,0,-0.5,0,./Stimuli/reg_trials/marblejar_left_72.jpg,"['green', 'purple', 'darkorange', 'purple', 'darkorange', 'purple', 'darkorange', 'darkorange', 'purple']",same,f,task_JarSelection,4,3,2,,,,,0,132,132,259,,,,,,,,,,,,,,,,,,,,,,,,,,,,,,,24,24,24,799.4768110419391,800.9725216670195,f,0,0.5343787079909816,purple,2,None,0,None,,,,,,,,,test_sept24,,2023-09-24_13h20.41.060,purple_orange_green,2022.2.5,None,
./Stimuli/marblejar_23points6.jpg,"['darkorange', 'purple', 'purple', 'darkorange', 'purple', 'darkorange', 'purple', 'purple', 'green']",./Stimuli/marblejar_23points16.jpg,"['darkorange', 'darkorange', 'darkorange', 'purple', 'purple', 'purple', 'purple', 'green', 'purple']",left,0.25,0,-0.5,0,./Stimuli/marblejar_23points6.jpg,"['darkorange', 'purple', 'purple', 'darkorange', 'purple', 'darkorange', 'purple', 'purple', 'green']",same,f,task_ChangeDetection,4,3,2,,,,,0,133,133,61,,,,,,,,,,,,,,,,,,,,,,,,,,,,,,,23,23,23,804.5442326249322,,None,0,,-1,0,j,0,None,807.5301227079472,0.20903799997176975,,,,,,,test_sept24,,2023-09-24_13h20.41.060,purple_orange_green,2022.2.5,None,
./Stimuli/reg_trials/rand_marblejar_58.jpg,"['purple', 'purple', 'darkorange', 'darkorange', 'purple', 'purple', 'darkorange', 'darkorange', 'purple']",./Stimuli/reg_trials/marblejar_right_58.jpg,"['green', 'purple', 'green', 'darkorange', 'darkorange', 'purple', 'green', 'green', 'darkorange']",right,-0.25,0,0.5,0,./Stimuli/reg_trials/marblejar_right_58.jpg,"['green', 'purple', 'green', 'darkorange', 'darkorange', 'purple', 'green', 'green', 'darkorange']",same,f,task_JarSelection,4,3,2,,,,,0,134,134,133,,,,,,,,,,,,,,,,,,,,,,,,,,,,,,,22,29,29,809.7732998329448,811.2611578330398,f,0,0.6672591249225661,purple,2,None,0,None,,,,,,,,,test_sept24,,2023-09-24_13h20.41.060,purple_orange_green,2022.2.5,None,
./Stimuli/marblejar_23points9.jpg,"['green', 'purple', 'purple', 'purple', 'green', 'purple', 'purple', 'darkorange', 'purple']",./Stimuli/marblejar_23points19.jpg,"['darkorange', 'darkorange', 'purple', 'purple', 'purple', 'darkorange', 'darkorange', 'darkorange', 'purple']",right,-0.25,0,0.5,0,./Stimuli/marblejar_23points19.jpg,"['darkorange', 'darkorange', 'purple', 'purple', 'purple', 'darkorange', 'darkorange', 'darkorange', 'purple']",same,f,task_JarSelection,4,3,2,,,,,0,135,135,64,,,,,,,,,,,,,,,,,,,,,,,,,,,,,,,23,23,23,814.9587784999749,816.455848291982,j,0,0.3760751250665635,purple,2,None,0,None,,,,,,,,,test_sept24,,2023-09-24_13h20.41.060,purple_orange_green,2022.2.5,None,
./Stimuli/reg_trials/marblejar_left_98.jpg,"['purple', 'darkorange', 'darkorange', 'purple', 'darkorange', 'purple', 'darkorange', 'darkorange', 'darkorange']",./Stimuli/reg_trials/rand_marblejar_210.jpg,"['purple', 'purple', 'darkorange', 'darkorange', 'purple', 'darkorange', 'green', 'green', 'green']",left,0.25,0,-0.5,0,./Stimuli/reg_trials/marblejar_left_98.jpg,"['purple', 'darkorange', 'darkorange', 'purple', 'darkorange', 'purple', 'darkorange', 'darkorange', 'darkorange']",same,f,task_JarSelection,4,3,2,,,,,0,136,136,285,,,,,,,,,,,,,,,,,,,,,,,,,,,,,,,24,27,24,819.8471519169398,821.3437418750254,f,0,0.386177665903233,purple,2,None,0,None,,,,,,,,,test_sept24,,2023-09-24_13h20.41.060,purple_orange_green,2022.2.5,None,
