Jar1,Jar1_Colors,Jar2,Jar2_Colors,Jar3_right_or_left,Jar3_text_position_X,Jar3_text_position_Y,Jar3_position_X,Jar3_position_Y,Jar3,Jar3_Colors,same_or_different,Change_Detection_Key,task,green_value,orange_value,purple_value,n,key_resp_break.keys_raw,key_resp_break.rt_mean,key_resp_break.rt_raw,key_resp_break.rt_std,key_resp_trials.corr_mean,key_resp_trials.corr_raw,key_resp_trials.corr_std,key_resp_trials.keys_raw,key_resp_trials.rt_mean,key_resp_trials.rt_raw,key_resp_trials.rt_std,key_resp_trials_JarSelection.corr_mean,key_resp_trials_JarSelection.corr_raw,key_resp_trials_JarSelection.corr_std,key_resp_trials_JarSelection.keys_raw,key_resp_trials_JarSelection.rt_mean,key_resp_trials_JarSelection.rt_raw,key_resp_trials_JarSelection.rt_std,order
./Stimuli/marblejar_29points0.jpg,"['darkorange', 'darkorange', 'darkorange', 'green', 'darkorange', 'green', 'darkorange', 'purple', 'green']",./Stimuli/marblejar_29points5.jpg,"['darkorange', 'darkorange', 'green', 'green', 'darkorange', 'purple', 'green', 'darkorange', 'darkorange']",left,0.25,0,-0.5,0,./Stimuli/marblejar_29points0.jpg,"['darkorange', 'darkorange', 'darkorange', 'green', 'darkorange', 'green', 'darkorange', 'purple', 'green']",same,f,task_JarSelection,4,3,2,1.0,,,,,0.0,0.0,0.0,,,,,0.0,0.0,0.0,'j',0.4775127172470093,0.4775127172470093,0.0,179.0
./Stimuli/marblejar_29points1.jpg,"['green', 'green', 'purple', 'darkorange', 'green', 'darkorange', 'green', 'darkorange', 'purple']",./Stimuli/marblejar_29points6.jpg,"['green', 'purple', 'green', 'green', 'darkorange', 'green', 'purple', 'purple', 'green']",left,0.25,0,-0.5,0,./Stimuli/marblejar_29points1.jpg,"['green', 'green', 'purple', 'darkorange', 'green', 'darkorange', 'green', 'darkorange', 'purple']",same,f,task_ChangeDetection,4,3,2,1.0,,,,,1.0,1.0,0.0,'f',0.6980400681495667,0.6980400681495667,0.0,0.0,0.0,0.0,,,,,297.0
./Stimuli/marblejar_29points2.jpg,"['green', 'darkorange', 'purple', 'green', 'purple', 'green', 'purple', 'green', 'green']",./Stimuli/marblejar_29points7.jpg,"['purple', 'green', 'green', 'darkorange', 'darkorange', 'green', 'darkorange', 'darkorange', 'darkorange']",right,-0.25,0,0.5,0,./Stimuli/marblejar_29points12.jpg,"['green', 'darkorange', 'purple', 'darkorange', 'darkorange', 'darkorange', 'green', 'green', 'darkorange']",different,j,task_JarSelection,4,3,2,1.0,,,,,0.0,0.0,0.0,,,,,0.0,0.0,0.0,'j',0.546873152256012,0.546873152256012,0.0,15.0
./Stimuli/marblejar_29points3.jpg,"['green', 'purple', 'purple', 'purple', 'green', 'darkorange', 'green', 'green', 'green']",./Stimuli/marblejar_29points8.jpg,"['purple', 'green', 'darkorange', 'purple', 'darkorange', 'green', 'darkorange', 'green', 'green']",right,-0.25,0,0.5,0,./Stimuli/marblejar_29points13.jpg,"['darkorange', 'green', 'darkorange', 'green', 'green', 'darkorange', 'purple', 'purple', 'green']",different,j,task_ChangeDetection,4,3,2,1.0,,,,,0.0,0.0,0.0,'f',1.3549327850341797,1.3549327850341797,0.0,0.0,0.0,0.0,,,,,221.0
./Stimuli/marblejar_29points4.jpg,"['purple', 'green', 'darkorange', 'purple', 'green', 'darkorange', 'darkorange', 'green', 'green']",./Stimuli/marblejar_29points9.jpg,"['green', 'purple', 'darkorange', 'darkorange', 'green', 'darkorange', 'darkorange', 'darkorange', 'green']",left,0.25,0,-0.5,0,./Stimuli/marblejar_29points4.jpg,"['purple', 'green', 'darkorange', 'purple', 'green', 'darkorange', 'darkorange', 'green', 'green']",same,f,task_ChangeDetection,4,3,2,1.0,,,,,1.0,1.0,0.0,'f',0.27631857991218567,0.27631857991218567,0.0,0.0,0.0,0.0,,,,,68.0
./Stimuli/marblejar_28points0.jpg,"['darkorange', 'green', 'green', 'darkorange', 'purple', 'purple', 'darkorange', 'green', 'darkorange']",./Stimuli/marblejar_28points10.jpg,"['green', 'green', 'darkorange', 'purple', 'green', 'green', 'purple', 'purple', 'darkorange']",left,0.25,0,-0.5,0,./Stimuli/marblejar_28points0.jpg,"['darkorange', 'green', 'green', 'darkorange', 'purple', 'purple', 'darkorange', 'green', 'darkorange']",same,f,task_ChangeDetection,4,3,2,1.0,,,,,1.0,1.0,0.0,'f',0.9251214265823364,0.9251214265823364,0.0,0.0,0.0,0.0,,,,,174.0
./Stimuli/marblejar_28points1.jpg,"['green', 'darkorange', 'purple', 'green', 'darkorange', 'green', 'purple', 'purple', 'green']",./Stimuli/marblejar_28points11.jpg,"['darkorange', 'darkorange', 'purple', 'green', 'green', 'darkorange', 'green', 'purple', 'darkorange']",left,0.25,0,-0.5,0,./Stimuli/marblejar_28points21.jpg,"['darkorange', 'green', 'purple', 'green', 'green', 'green', 'darkorange', 'purple', 'purple']",different,j,task_JarSelection,4,3,2,1.0,,,,,0.0,0.0,0.0,,,,,0.0,0.0,0.0,'f',0.770982027053833,0.770982027053833,0.0,156.0
./Stimuli/marblejar_28points2.jpg,"['darkorange', 'purple', 'darkorange', 'darkorange', 'green', 'green', 'purple', 'darkorange', 'green']",./Stimuli/marblejar_28points12.jpg,"['darkorange', 'darkorange', 'darkorange', 'darkorange', 'green', 'purple', 'green', 'darkorange', 'darkorange']",left,0.25,0,-0.5,0,./Stimuli/marblejar_28points22.jpg,"['green', 'darkorange', 'darkorange', 'purple', 'darkorange', 'darkorange', 'darkorange', 'darkorange', 'green']",different,j,task_ChangeDetection,4,3,2,1.0,,,,,0.0,0.0,0.0,'f',2.749636173248291,2.749636173248291,0.0,0.0,0.0,0.0,,,,,225.0
./Stimuli/marblejar_28points3.jpg,"['purple', 'darkorange', 'purple', 'green', 'green', 'purple', 'green', 'darkorange', 'green']",./Stimuli/marblejar_28points13.jpg,"['darkorange', 'darkorange', 'darkorange', 'purple', 'darkorange', 'darkorange', 'green', 'darkorange', 'green']",right,-0.25,0,0.5,0,./Stimuli/marblejar_28points23.jpg,"['darkorange', 'purple', 'purple', 'green', 'green', 'darkorange', 'darkorange', 'green', 'darkorange']",different,j,task_JarSelection,4,3,2,1.0,,,,,0.0,0.0,0.0,,,,,0.0,0.0,0.0,'f',0.7973007559776306,0.7973007559776306,0.0,253.0
./Stimuli/marblejar_28points4.jpg,"['green', 'green', 'darkorange', 'green', 'purple', 'purple', 'darkorange', 'green', 'purple']",./Stimuli/marblejar_28points14.jpg,"['green', 'darkorange', 'darkorange', 'purple', 'darkorange', 'purple', 'green', 'darkorange', 'green']",right,-0.25,0,0.5,0,./Stimuli/marblejar_28points14.jpg,"['green', 'darkorange', 'darkorange', 'purple', 'darkorange', 'purple', 'green', 'darkorange', 'green']",same,f,task_ChangeDetection,4,3,2,1.0,,,,,1.0,1.0,0.0,'f',1.364486813545227,1.364486813545227,0.0,0.0,0.0,0.0,,,,,59.0
./Stimuli/marblejar_28points5.jpg,"['darkorange', 'purple', 'darkorange', 'darkorange', 'green', 'darkorange', 'darkorange', 'darkorange', 'green']",./Stimuli/marblejar_28points15.jpg,"['darkorange', 'darkorange', 'green', 'purple', 'green', 'purple', 'darkorange', 'green', 'darkorange']",right,-0.25,0,0.5,0,./Stimuli/marblejar_28points15.jpg,"['darkorange', 'darkorange', 'green', 'purple', 'green', 'purple', 'darkorange', 'green', 'darkorange']",same,f,task_JarSelection,4,3,2,1.0,,,,,0.0,0.0,0.0,,,,,0.0,0.0,0.0,'f',0.8345746397972107,0.8345746397972107,0.0,6.0
./Stimuli/marblejar_28points6.jpg,"['green', 'green', 'purple', 'purple', 'darkorange', 'green', 'darkorange', 'darkorange', 'darkorange']",./Stimuli/marblejar_28points16.jpg,"['purple', 'green', 'green', 'green', 'darkorange', 'darkorange', 'purple', 'purple', 'green']",right,-0.25,0,0.5,0,./Stimuli/marblejar_28points26.jpg,"['green', 'purple', 'green', 'darkorange', 'darkorange', 'green', 'darkorange', 'purple', 'darkorange']",different,j,task_ChangeDetection,4,3,2,1.0,,,,,0.0,0.0,0.0,'f',0.6196001172065735,0.6196001172065735,0.0,0.0,0.0,0.0,,,,,192.0
./Stimuli/marblejar_28points7.jpg,"['purple', 'purple', 'purple', 'green', 'darkorange', 'green', 'green', 'darkorange', 'green']",./Stimuli/marblejar_28points17.jpg,"['green', 'purple', 'purple', 'darkorange', 'darkorange', 'green', 'darkorange', 'green', 'darkorange']",left,0.25,0,-0.5,0,./Stimuli/marblejar_28points27.jpg,"['purple', 'darkorange', 'green', 'purple', 'darkorange', 'green', 'purple', 'green', 'green']",different,j,task_JarSelection,4,3,2,1.0,,,,,0.0,0.0,0.0,,,,,0.0,0.0,0.0,'f',0.5045318603515625,0.5045318603515625,0.0,97.0
./Stimuli/marblejar_28points8.jpg,"['green', 'darkorange', 'darkorange', 'purple', 'darkorange', 'darkorange', 'green', 'green', 'purple']",./Stimuli/marblejar_28points18.jpg,"['purple', 'green', 'purple', 'green', 'darkorange', 'green', 'purple', 'darkorange', 'green']",left,0.25,0,-0.5,0,./Stimuli/marblejar_28points28.jpg,"['darkorange', 'darkorange', 'darkorange', 'green', 'green', 'green', 'purple', 'purple', 'darkorange']",different,j,task_ChangeDetection,4,3,2,1.0,,,,,1.0,1.0,0.0,'j',0.4636947512626648,0.4636947512626648,0.0,0.0,0.0,0.0,,,,,129.0
./Stimuli/marblejar_28points9.jpg,"['purple', 'darkorange', 'green', 'green', 'purple', 'darkorange', 'green', 'green', 'purple']",./Stimuli/marblejar_28points19.jpg,"['darkorange', 'darkorange', 'green', 'darkorange', 'darkorange', 'darkorange', 'purple', 'green', 'darkorange']",left,0.25,0,-0.5,0,./Stimuli/marblejar_28points9.jpg,"['purple', 'darkorange', 'green', 'green', 'purple', 'darkorange', 'green', 'green', 'purple']",same,f,task_JarSelection,4,3,2,1.0,,,,,0.0,0.0,0.0,,,,,0.0,0.0,0.0,'f',0.6270966529846191,0.6270966529846191,0.0,229.0
./Stimuli/marblejar_27points0.jpg,"['green', 'darkorange', 'darkorange', 'purple', 'darkorange', 'darkorange', 'purple', 'darkorange', 'green']",./Stimuli/marblejar_27points10.jpg,"['purple', 'darkorange', 'darkorange', 'green', 'darkorange', 'purple', 'green', 'green', 'purple']",left,0.25,0,-0.5,0,./Stimuli/marblejar_27points0.jpg,"['green', 'darkorange', 'darkorange', 'purple', 'darkorange', 'darkorange', 'purple', 'darkorange', 'green']",same,f,task_ChangeDetection,4,3,2,1.0,,,,,0.0,0.0,0.0,'j',0.7036590576171875,0.7036590576171875,0.0,0.0,0.0,0.0,,,,,266.0
./Stimuli/marblejar_27points1.jpg,"['green', 'green', 'green', 'darkorange', 'darkorange', 'purple', 'darkorange', 'purple', 'purple']",./Stimuli/marblejar_27points11.jpg,"['darkorange', 'darkorange', 'darkorange', 'darkorange', 'darkorange', 'green', 'purple', 'green', 'purple']",right,-0.25,0,0.5,0,./Stimuli/marblejar_27points11.jpg,"['darkorange', 'darkorange', 'darkorange', 'darkorange', 'darkorange', 'green', 'purple', 'green', 'purple']",same,f,task_JarSelection,4,3,2,1.0,,,,,0.0,0.0,0.0,,,,,0.0,0.0,0.0,'j',0.6337403059005737,0.6337403059005737,0.0,28.0
./Stimuli/marblejar_27points2.jpg,"['darkorange', 'purple', 'darkorange', 'darkorange', 'green', 'purple', 'darkorange', 'darkorange', 'green']",./Stimuli/marblejar_27points12.jpg,"['darkorange', 'darkorange', 'purple', 'darkorange', 'darkorange', 'green', 'darkorange', 'darkorange', 'darkorange']",right,-0.25,0,0.5,0,./Stimuli/marblejar_27points12.jpg,"['darkorange', 'darkorange', 'purple', 'darkorange', 'darkorange', 'green', 'darkorange', 'darkorange', 'darkorange']",same,f,task_ChangeDetection,4,3,2,1.0,,,,,1.0,1.0,0.0,'f',0.841587245464325,0.841587245464325,0.0,0.0,0.0,0.0,,,,,188.0
./Stimuli/marblejar_27points3.jpg,"['purple', 'green', 'purple', 'darkorange', 'purple', 'darkorange', 'darkorange', 'green', 'green']",./Stimuli/marblejar_27points13.jpg,"['green', 'purple', 'purple', 'darkorange', 'darkorange', 'green', 'darkorange', 'darkorange', 'darkorange']",right,-0.25,0,0.5,0,./Stimuli/marblejar_27points23.jpg,"['green', 'darkorange', 'purple', 'green', 'green', 'purple', 'purple', 'darkorange', 'darkorange']",different,j,task_JarSelection,4,3,2,1.0,,,,,0.0,0.0,0.0,,,,,0.0,0.0,0.0,'j',0.7369619011878967,0.7369619011878967,0.0,208.0
./Stimuli/marblejar_27points4.jpg,"['darkorange', 'green', 'purple', 'darkorange', 'purple', 'darkorange', 'green', 'purple', 'green']",./Stimuli/marblejar_27points14.jpg,"['darkorange', 'purple', 'green', 'green', 'purple', 'green', 'purple', 'purple', 'green']",right,-0.25,0,0.5,0,./Stimuli/marblejar_27points24.jpg,"['green', 'purple', 'purple', 'purple', 'green', 'purple', 'green', 'darkorange', 'green']",different,j,task_ChangeDetection,4,3,2,1.0,,,,,0.0,0.0,0.0,'f',1.1641596555709839,1.1641596555709839,0.0,0.0,0.0,0.0,,,,,109.0
./Stimuli/marblejar_27points5.jpg,"['green', 'darkorange', 'darkorange', 'green', 'purple', 'darkorange', 'purple', 'darkorange', 'darkorange']",./Stimuli/marblejar_27points15.jpg,"['darkorange', 'purple', 'green', 'purple', 'green', 'darkorange', 'purple', 'green', 'darkorange']",left,0.25,0,-0.5,0,./Stimuli/marblejar_27points25.jpg,"['purple', 'darkorange', 'darkorange', 'darkorange', 'darkorange', 'purple', 'darkorange', 'green', 'green']",different,j,task_JarSelection,4,3,2,1.0,,,,,0.0,0.0,0.0,,,,,0.0,0.0,0.0,'j',0.719521701335907,0.719521701335907,0.0,222.0
./Stimuli/marblejar_27points6.jpg,"['green', 'darkorange', 'darkorange', 'green', 'darkorange', 'darkorange', 'purple', 'darkorange', 'purple']",./Stimuli/marblejar_27points16.jpg,"['darkorange', 'purple', 'darkorange', 'purple', 'green', 'darkorange', 'green', 'purple', 'green']",left,0.25,0,-0.5,0,./Stimuli/marblejar_27points6.jpg,"['green', 'darkorange', 'darkorange', 'green', 'darkorange', 'darkorange', 'purple', 'darkorange', 'purple']",same,f,task_ChangeDetection,4,3,2,1.0,,,,,0.0,0.0,0.0,'j',0.9712958335876465,0.9712958335876465,0.0,0.0,0.0,0.0,,,,,83.0
./Stimuli/marblejar_27points7.jpg,"['green', 'darkorange', 'purple', 'darkorange', 'green', 'darkorange', 'purple', 'green', 'purple']",./Stimuli/marblejar_27points17.jpg,"['green', 'darkorange', 'purple', 'darkorange', 'darkorange', 'darkorange', 'purple', 'green', 'darkorange']",left,0.25,0,-0.5,0,./Stimuli/marblejar_27points7.jpg,"['green', 'darkorange', 'purple', 'darkorange', 'green', 'darkorange', 'purple', 'green', 'purple']",same,f,task_JarSelection,4,3,2,1.0,,,,,0.0,0.0,0.0,,,,,0.0,0.0,0.0,'f',0.5967854857444763,0.5967854857444763,0.0,11.0
./Stimuli/marblejar_27points8.jpg,"['purple', 'green', 'darkorange', 'purple', 'purple', 'green', 'darkorange', 'darkorange', 'green']",./Stimuli/marblejar_27points18.jpg,"['purple', 'darkorange', 'purple', 'purple', 'green', 'green', 'darkorange', 'darkorange', 'green']",left,0.25,0,-0.5,0,./Stimuli/marblejar_27points8.jpg,"['purple', 'green', 'darkorange', 'purple', 'purple', 'green', 'darkorange', 'darkorange', 'green']",same,f,task_ChangeDetection,4,3,2,1.0,,,,,0.0,0.0,0.0,'j',0.3327515721321106,0.3327515721321106,0.0,0.0,0.0,0.0,,,,,139.0
./Stimuli/marblejar_27points9.jpg,"['green', 'purple', 'darkorange', 'purple', 'darkorange', 'green', 'darkorange', 'darkorange', 'darkorange']",./Stimuli/marblejar_27points19.jpg,"['darkorange', 'darkorange', 'green', 'purple', 'darkorange', 'darkorange', 'darkorange', 'green', 'purple']",right,-0.25,0,0.5,0,./Stimuli/marblejar_27points19.jpg,"['darkorange', 'darkorange', 'green', 'purple', 'darkorange', 'darkorange', 'darkorange', 'green', 'purple']",same,f,task_JarSelection,4,3,2,1.0,,,,,0.0,0.0,0.0,,,,,0.0,0.0,0.0,'f',0.5959680676460266,0.5959680676460266,0.0,218.0
./Stimuli/marblejar_26points0.jpg,"['purple', 'darkorange', 'darkorange', 'purple', 'darkorange', 'green', 'green', 'purple', 'darkorange']",./Stimuli/marblejar_26points10.jpg,"['green', 'darkorange', 'darkorange', 'purple', 'darkorange', 'darkorange', 'darkorange', 'purple', 'darkorange']",right,-0.25,0,0.5,0,./Stimuli/marblejar_26points20.jpg,"['darkorange', 'purple', 'green', 'darkorange', 'green', 'purple', 'purple', 'purple', 'green']",different,j,task_ChangeDetection,4,3,2,1.0,,,,,1.0,1.0,0.0,'j',1.4109892845153809,1.4109892845153809,0.0,0.0,0.0,0.0,,,,,215.0
./Stimuli/marblejar_26points1.jpg,"['purple', 'darkorange', 'darkorange', 'purple', 'darkorange', 'green', 'green', 'darkorange', 'purple']",./Stimuli/marblejar_26points11.jpg,"['green', 'purple', 'darkorange', 'darkorange', 'purple', 'darkorange', 'darkorange', 'green', 'purple']",right,-0.25,0,0.5,0,./Stimuli/marblejar_26points21.jpg,"['darkorange', 'purple', 'green', 'purple', 'purple', 'darkorange', 'green', 'purple', 'green']",different,j,task_JarSelection,4,3,2,1.0,,,,,0.0,0.0,0.0,,,,,0.0,0.0,0.0,'f',0.8755387663841248,0.8755387663841248,0.0,22.0
./Stimuli/marblejar_26points2.jpg,"['darkorange', 'darkorange', 'darkorange', 'purple', 'purple', 'green', 'purple', 'darkorange', 'green']",./Stimuli/marblejar_26points12.jpg,"['green', 'purple', 'purple', 'purple', 'green', 'green', 'darkorange', 'darkorange', 'purple']",right,-0.25,0,0.5,0,./Stimuli/marblejar_26points12.jpg,"['green', 'purple', 'purple', 'purple', 'green', 'green', 'darkorange', 'darkorange', 'purple']",same,f,task_ChangeDetection,4,3,2,1.0,,,,,1.0,1.0,0.0,'f',0.8065199851989746,0.8065199851989746,0.0,0.0,0.0,0.0,,,,,228.0
./Stimuli/marblejar_26points3.jpg,"['darkorange', 'purple', 'green', 'purple', 'green', 'darkorange', 'darkorange', 'darkorange', 'purple']",./Stimuli/marblejar_26points13.jpg,"['purple', 'green', 'darkorange', 'darkorange', 'purple', 'green', 'purple', 'purple', 'green']",left,0.25,0,-0.5,0,./Stimuli/marblejar_26points23.jpg,"['darkorange', 'purple', 'green', 'green', 'darkorange', 'darkorange', 'darkorange', 'purple', 'purple']",different,j,task_JarSelection,4,3,2,1.0,,,,,0.0,0.0,0.0,,,,,0.0,0.0,0.0,'j',0.7072209119796753,0.7072209119796753,0.0,20.0
./Stimuli/marblejar_26points4.jpg,"['darkorange', 'darkorange', 'darkorange', 'purple', 'green', 'darkorange', 'green', 'purple', 'purple']",./Stimuli/marblejar_26points14.jpg,"['darkorange', 'darkorange', 'green', 'darkorange', 'purple', 'darkorange', 'green', 'purple', 'purple']",left,0.25,0,-0.5,0,./Stimuli/marblejar_26points24.jpg,"['purple', 'darkorange', 'darkorange', 'purple', 'darkorange', 'darkorange', 'green', 'purple', 'green']",different,j,task_ChangeDetection,4,3,2,1.0,,,,,1.0,1.0,0.0,'j',1.0256717205047607,1.0256717205047607,0.0,0.0,0.0,0.0,,,,,268.0
./Stimuli/marblejar_26points5.jpg,"['purple', 'purple', 'darkorange', 'darkorange', 'green', 'purple', 'green', 'darkorange', 'darkorange']",./Stimuli/marblejar_26points15.jpg,"['purple', 'darkorange', 'darkorange', 'purple', 'purple', 'green', 'darkorange', 'darkorange', 'green']",left,0.25,0,-0.5,0,./Stimuli/marblejar_26points25.jpg,"['green', 'purple', 'darkorange', 'purple', 'green', 'green', 'darkorange', 'purple', 'purple']",different,j,task_JarSelection,4,3,2,1.0,,,,,0.0,0.0,0.0,,,,,0.0,0.0,0.0,'f',0.5366705656051636,0.5366705656051636,0.0,276.0
./Stimuli/marblejar_26points6.jpg,"['darkorange', 'darkorange', 'purple', 'green', 'darkorange', 'purple', 'darkorange', 'darkorange', 'darkorange']",./Stimuli/marblejar_26points16.jpg,"['darkorange', 'green', 'purple', 'green', 'darkorange', 'darkorange', 'purple', 'purple', 'darkorange']",left,0.25,0,-0.5,0,./Stimuli/marblejar_26points26.jpg,"['purple', 'darkorange', 'purple', 'green', 'green', 'purple', 'green', 'purple', 'darkorange']",different,j,task_ChangeDetection,4,3,2,1.0,,,,,1.0,1.0,0.0,'j',0.4652865529060364,0.4652865529060364,0.0,0.0,0.0,0.0,,,,,278.0
./Stimuli/marblejar_26points7.jpg,"['darkorange', 'purple', 'green', 'purple', 'purple', 'purple', 'green', 'green', 'darkorange']",./Stimuli/marblejar_26points17.jpg,"['purple', 'green', 'darkorange', 'purple', 'darkorange', 'purple', 'darkorange', 'green', 'darkorange']",right,-0.25,0,0.5,0,./Stimuli/marblejar_26points17.jpg,"['purple', 'green', 'darkorange', 'purple', 'darkorange', 'purple', 'darkorange', 'green', 'darkorange']",same,f,task_JarSelection,4,3,2,1.0,,,,,0.0,0.0,0.0,,,,,0.0,0.0,0.0,'j',1.1514860391616821,1.1514860391616821,0.0,91.0
./Stimuli/marblejar_26points8.jpg,"['darkorange', 'green', 'purple', 'darkorange', 'purple', 'darkorange', 'darkorange', 'purple', 'green']",./Stimuli/marblejar_26points18.jpg,"['darkorange', 'purple', 'purple', 'green', 'green', 'darkorange', 'purple', 'darkorange', 'darkorange']",right,-0.25,0,0.5,0,./Stimuli/marblejar_26points28.jpg,"['purple', 'darkorange', 'green', 'purple', 'darkorange', 'darkorange', 'purple', 'darkorange', 'green']",different,j,task_ChangeDetection,4,3,2,1.0,,,,,1.0,1.0,0.0,'j',1.143777847290039,1.143777847290039,0.0,0.0,0.0,0.0,,,,,131.0
./Stimuli/marblejar_26points9.jpg,"['darkorange', 'darkorange', 'darkorange', 'purple', 'purple', 'darkorange', 'green', 'green', 'purple']",./Stimuli/marblejar_26points19.jpg,"['darkorange', 'purple', 'darkorange', 'darkorange', 'darkorange', 'purple', 'darkorange', 'green', 'darkorange']",right,-0.25,0,0.5,0,./Stimuli/marblejar_26points29.jpg,"['darkorange', 'green', 'darkorange', 'purple', 'green', 'purple', 'purple', 'darkorange', 'darkorange']",different,j,task_JarSelection,4,3,2,1.0,,,,,0.0,0.0,0.0,,,,,0.0,0.0,0.0,'f',0.6566539406776428,0.6566539406776428,0.0,64.0
./Stimuli/marblejar_25points0.jpg,"['purple', 'purple', 'green', 'purple', 'darkorange', 'purple', 'green', 'darkorange', 'darkorange']",./Stimuli/marblejar_25points10.jpg,"['green', 'purple', 'darkorange', 'purple', 'purple', 'darkorange', 'darkorange', 'darkorange', 'darkorange']",right,-0.25,0,0.5,0,./Stimuli/marblejar_25points10.jpg,"['green', 'purple', 'darkorange', 'purple', 'purple', 'darkorange', 'darkorange', 'darkorange', 'darkorange']",same,f,task_ChangeDetection,4,3,2,1.0,,,,,1.0,1.0,0.0,'f',0.848890483379364,0.848890483379364,0.0,0.0,0.0,0.0,,,,,205.0
./Stimuli/marblejar_25points1.jpg,"['purple', 'darkorange', 'darkorange', 'purple', 'purple', 'darkorange', 'purple', 'green', 'green']",./Stimuli/marblejar_25points11.jpg,"['darkorange', 'purple', 'darkorange', 'purple', 'purple', 'darkorange', 'darkorange', 'darkorange', 'green']",left,0.25,0,-0.5,0,./Stimuli/marblejar_25points21.jpg,"['purple', 'darkorange', 'green', 'darkorange', 'purple', 'darkorange', 'purple', 'darkorange', 'darkorange']",different,j,task_JarSelection,4,3,2,1.0,,,,,0.0,0.0,0.0,,,,,0.0,0.0,0.0,'j',1.2349770069122314,1.2349770069122314,0.0,283.0
./Stimuli/marblejar_25points2.jpg,"['darkorange', 'purple', 'green', 'purple', 'darkorange', 'darkorange', 'darkorange', 'darkorange', 'purple']",./Stimuli/marblejar_25points12.jpg,"['green', 'purple', 'purple', 'darkorange', 'green', 'darkorange', 'purple', 'darkorange', 'purple']",left,0.25,0,-0.5,0,./Stimuli/marblejar_25points22.jpg,"['purple', 'darkorange', 'green', 'green', 'darkorange', 'darkorange', 'purple', 'purple', 'purple']",different,j,task_ChangeDetection,4,3,2,1.0,,,,,1.0,1.0,0.0,'j',0.21548329293727875,0.21548329293727875,0.0,0.0,0.0,0.0,,,,,75.0
./Stimuli/marblejar_25points3.jpg,"['green', 'purple', 'darkorange', 'purple', 'darkorange', 'green', 'purple', 'purple', 'darkorange']",./Stimuli/marblejar_25points13.jpg,"['darkorange', 'purple', 'green', 'darkorange', 'purple', 'green', 'purple', 'purple', 'darkorange']",left,0.25,0,-0.5,0,./Stimuli/marblejar_25points3.jpg,"['green', 'purple', 'darkorange', 'purple', 'darkorange', 'green', 'purple', 'purple', 'darkorange']",same,f,task_JarSelection,4,3,2,1.0,,,,,0.0,0.0,0.0,,,,,0.0,0.0,0.0,'f',0.49643027782440186,0.49643027782440186,0.0,267.0
./Stimuli/marblejar_25points4.jpg,"['purple', 'purple', 'green', 'green', 'purple', 'darkorange', 'darkorange', 'purple', 'darkorange']",./Stimuli/marblejar_25points14.jpg,"['darkorange', 'purple', 'darkorange', 'purple', 'darkorange', 'green', 'darkorange', 'purple', 'darkorange']",left,0.25,0,-0.5,0,./Stimuli/marblejar_25points24.jpg,"['purple', 'darkorange', 'darkorange', 'darkorange', 'darkorange', 'darkorange', 'darkorange', 'darkorange', 'purple']",different,j,task_ChangeDetection,4,3,2,1.0,,,,,1.0,1.0,0.0,'j',0.716839611530304,0.716839611530304,0.0,0.0,0.0,0.0,,,,,50.0
./Stimuli/marblejar_25points5.jpg,"['darkorange', 'purple', 'darkorange', 'purple', 'darkorange', 'purple', 'darkorange', 'green', 'darkorange']",./Stimuli/marblejar_25points15.jpg,"['green', 'purple', 'purple', 'purple', 'darkorange', 'darkorange', 'purple', 'green', 'darkorange']",right,-0.25,0,0.5,0,./Stimuli/marblejar_25points15.jpg,"['green', 'purple', 'purple', 'purple', 'darkorange', 'darkorange', 'purple', 'green', 'darkorange']",same,f,task_JarSelection,4,3,2,1.0,,,,,0.0,0.0,0.0,,,,,0.0,0.0,0.0,'j',0.8589989542961121,0.8589989542961121,0.0,74.0
./Stimuli/marblejar_25points6.jpg,"['darkorange', 'darkorange', 'purple', 'purple', 'darkorange', 'green', 'purple', 'purple', 'green']",./Stimuli/marblejar_25points16.jpg,"['purple', 'purple', 'green', 'green', 'darkorange', 'purple', 'darkorange', 'darkorange', 'purple']",right,-0.25,0,0.5,0,./Stimuli/marblejar_25points26.jpg,"['darkorange', 'darkorange', 'darkorange', 'darkorange', 'darkorange', 'purple', 'purple', 'darkorange', 'darkorange']",different,j,task_ChangeDetection,4,3,2,1.0,,,,,1.0,1.0,0.0,'j',0.4688859283924103,0.4688859283924103,0.0,0.0,0.0,0.0,,,,,127.0
./Stimuli/marblejar_25points7.jpg,"['darkorange', 'darkorange', 'darkorange', 'darkorange', 'purple', 'purple', 'purple', 'darkorange', 'green']",./Stimuli/marblejar_25points17.jpg,"['purple', 'purple', 'darkorange', 'purple', 'darkorange', 'darkorange', 'darkorange', 'darkorange', 'green']",right,-0.25,0,0.5,0,./Stimuli/marblejar_25points27.jpg,"['purple', 'green', 'purple', 'green', 'purple', 'darkorange', 'purple', 'purple', 'green']",different,j,task_JarSelection,4,3,2,1.0,,,,,0.0,0.0,0.0,,,,,0.0,0.0,0.0,'f',0.39901357889175415,0.39901357889175415,0.0,242.0
./Stimuli/marblejar_25points8.jpg,"['purple', 'purple', 'darkorange', 'green', 'darkorange', 'darkorange', 'darkorange', 'purple', 'darkorange']",./Stimuli/marblejar_25points18.jpg,"['green', 'purple', 'green', 'purple', 'purple', 'purple', 'green', 'darkorange', 'purple']",right,-0.25,0,0.5,0,./Stimuli/marblejar_25points18.jpg,"['green', 'purple', 'green', 'purple', 'purple', 'purple', 'green', 'darkorange', 'purple']",same,f,task_ChangeDetection,4,3,2,1.0,,,,,1.0,1.0,0.0,'f',1.1121872663497925,1.1121872663497925,0.0,0.0,0.0,0.0,,,,,212.0
./Stimuli/marblejar_25points9.jpg,"['darkorange', 'darkorange', 'darkorange', 'purple', 'darkorange', 'purple', 'purple', 'green', 'darkorange']",./Stimuli/marblejar_25points19.jpg,"['darkorange', 'green', 'darkorange', 'darkorange', 'purple', 'darkorange', 'darkorange', 'purple', 'purple']",left,0.25,0,-0.5,0,./Stimuli/marblejar_25points9.jpg,"['darkorange', 'darkorange', 'darkorange', 'purple', 'darkorange', 'purple', 'purple', 'green', 'darkorange']",same,f,task_JarSelection,4,3,2,1.0,,,,,0.0,0.0,0.0,,,,,0.0,0.0,0.0,'f',0.38480594754219055,0.38480594754219055,0.0,113.0
./Stimuli/marblejar_24points0.jpg,"['purple', 'darkorange', 'purple', 'darkorange', 'darkorange', 'darkorange', 'purple', 'green', 'purple']",./Stimuli/marblejar_24points10.jpg,"['darkorange', 'purple', 'purple', 'purple', 'purple', 'darkorange', 'darkorange', 'green', 'darkorange']",left,0.25,0,-0.5,0,./Stimuli/marblejar_24points0.jpg,"['purple', 'darkorange', 'purple', 'darkorange', 'darkorange', 'darkorange', 'purple', 'green', 'purple']",same,f,task_ChangeDetection,4,3,2,1.0,,,,,1.0,1.0,0.0,'f',0.9932409524917603,0.9932409524917603,0.0,0.0,0.0,0.0,,,,,264.0
./Stimuli/marblejar_24points1.jpg,"['darkorange', 'purple', 'green', 'purple', 'darkorange', 'purple', 'darkorange', 'darkorange', 'purple']",./Stimuli/marblejar_24points11.jpg,"['green', 'purple', 'purple', 'darkorange', 'purple', 'purple', 'darkorange', 'darkorange', 'darkorange']",left,0.25,0,-0.5,0,./Stimuli/marblejar_24points1.jpg,"['darkorange', 'purple', 'green', 'purple', 'darkorange', 'purple', 'darkorange', 'darkorange', 'purple']",same,f,task_JarSelection,4,3,2,1.0,,,,,0.0,0.0,0.0,,,,,0.0,0.0,0.0,'f',0.8005926012992859,0.8005926012992859,0.0,172.0
./Stimuli/marblejar_24points2.jpg,"['purple', 'darkorange', 'purple', 'purple', 'purple', 'green', 'darkorange', 'purple', 'green']",./Stimuli/marblejar_24points12.jpg,"['purple', 'purple', 'darkorange', 'darkorange', 'purple', 'darkorange', 'green', 'darkorange', 'purple']",left,0.25,0,-0.5,0,./Stimuli/marblejar_24points22.jpg,"['darkorange', 'purple', 'purple', 'purple', 'darkorange', 'darkorange', 'purple', 'darkorange', 'green']",different,j,task_ChangeDetection,4,3,2,1.0,,,,,1.0,1.0,0.0,'j',1.1700018644332886,1.1700018644332886,0.0,0.0,0.0,0.0,,,,,155.0
./Stimuli/marblejar_24points3.jpg,"['darkorange', 'purple', 'darkorange', 'purple', 'darkorange', 'darkorange', 'darkorange', 'darkorange', 'purple']",./Stimuli/marblejar_24points13.jpg,"['darkorange', 'darkorange', 'darkorange', 'purple', 'purple', 'green', 'purple', 'purple', 'darkorange']",right,-0.25,0,0.5,0,./Stimuli/marblejar_24points23.jpg,"['darkorange', 'darkorange', 'darkorange', 'purple', 'purple', 'darkorange', 'darkorange', 'purple', 'darkorange']",different,j,task_JarSelection,4,3,2,1.0,,,,,0.0,0.0,0.0,,,,,0.0,0.0,0.0,'f',0.5582523941993713,0.5582523941993713,0.0,76.0
./Stimuli/marblejar_24points4.jpg,"['darkorange', 'darkorange', 'darkorange', 'purple', 'darkorange', 'darkorange', 'purple', 'darkorange', 'purple']",./Stimuli/marblejar_24points14.jpg,"['darkorange', 'purple', 'purple', 'darkorange', 'darkorange', 'darkorange', 'darkorange', 'darkorange', 'purple']",right,-0.25,0,0.5,0,./Stimuli/marblejar_24points24.jpg,"['darkorange', 'darkorange', 'purple', 'darkorange', 'darkorange', 'darkorange', 'darkorange', 'purple', 'purple']",different,j,task_ChangeDetection,4,3,2,1.0,,,,,0.0,0.0,0.0,'f',1.4784455299377441,1.4784455299377441,0.0,0.0,0.0,0.0,,,,,2.0
./Stimuli/marblejar_24points5.jpg,"['green', 'purple', 'darkorange', 'darkorange', 'darkorange', 'purple', 'purple', 'darkorange', 'purple']",./Stimuli/marblejar_24points15.jpg,"['darkorange', 'purple', 'darkorange', 'darkorange', 'darkorange', 'darkorange', 'purple', 'darkorange', 'purple']",right,-0.25,0,0.5,0,./Stimuli/marblejar_24points15.jpg,"['darkorange', 'purple', 'darkorange', 'darkorange', 'darkorange', 'darkorange', 'purple', 'darkorange', 'purple']",same,f,task_JarSelection,4,3,2,1.0,,,,,0.0,0.0,0.0,,,,,0.0,0.0,0.0,'j',0.6370452642440796,0.6370452642440796,0.0,45.0
./Stimuli/marblejar_24points6.jpg,"['purple', 'darkorange', 'purple', 'darkorange', 'purple', 'darkorange', 'darkorange', 'darkorange', 'darkorange']",./Stimuli/marblejar_24points16.jpg,"['purple', 'purple', 'darkorange', 'green', 'purple', 'darkorange', 'darkorange', 'purple', 'darkorange']",right,-0.25,0,0.5,0,./Stimuli/marblejar_24points16.jpg,"['purple', 'purple', 'darkorange', 'green', 'purple', 'darkorange', 'darkorange', 'purple', 'darkorange']",same,f,task_ChangeDetection,4,3,2,1.0,,,,,1.0,1.0,0.0,'f',0.7947431802749634,0.7947431802749634,0.0,0.0,0.0,0.0,,,,,184.0
./Stimuli/marblejar_24points7.jpg,"['purple', 'darkorange', 'purple', 'darkorange', 'purple', 'purple', 'green', 'darkorange', 'darkorange']",./Stimuli/marblejar_24points17.jpg,"['darkorange', 'green', 'darkorange', 'darkorange', 'purple', 'darkorange', 'purple', 'purple', 'purple']",left,0.25,0,-0.5,0,./Stimuli/marblejar_24points27.jpg,"['green', 'purple', 'purple', 'darkorange', 'darkorange', 'green', 'purple', 'purple', 'purple']",different,j,task_JarSelection,4,3,2,1.0,,,,,0.0,0.0,0.0,,,,,0.0,0.0,0.0,'j',0.5475367903709412,0.5475367903709412,0.0,125.0
./Stimuli/marblejar_24points8.jpg,"['darkorange', 'purple', 'green', 'green', 'purple', 'purple', 'darkorange', 'purple', 'purple']",./Stimuli/marblejar_24points18.jpg,"['darkorange', 'purple', 'purple', 'darkorange', 'purple', 'purple', 'purple', 'green', 'green']",left,0.25,0,-0.5,0,./Stimuli/marblejar_24points28.jpg,"['purple', 'darkorange', 'green', 'darkorange', 'purple', 'purple', 'darkorange', 'purple', 'darkorange']",different,j,task_ChangeDetection,4,3,2,1.0,,,,,0.0,0.0,0.0,'f',0.7793055176734924,0.7793055176734924,0.0,0.0,0.0,0.0,,,,,73.0
./Stimuli/marblejar_24points9.jpg,"['darkorange', 'green', 'darkorange', 'purple', 'purple', 'purple', 'darkorange', 'darkorange', 'purple']",./Stimuli/marblejar_24points19.jpg,"['purple', 'purple', 'darkorange', 'purple', 'green', 'purple', 'purple', 'darkorange', 'green']",left,0.25,0,-0.5,0,./Stimuli/marblejar_24points29.jpg,"['darkorange', 'darkorange', 'green', 'green', 'purple', 'purple', 'purple', 'purple', 'purple']",different,j,task_JarSelection,4,3,2,1.0,,,,,0.0,0.0,0.0,,,,,0.0,0.0,0.0,'f',0.6338581442832947,0.6338581442832947,0.0,274.0
./Stimuli/marblejar_23points0.jpg,"['purple', 'darkorange', 'purple', 'darkorange', 'darkorange', 'purple', 'purple', 'darkorange', 'darkorange']",./Stimuli/marblejar_23points10.jpg,"['darkorange', 'darkorange', 'purple', 'purple', 'darkorange', 'purple', 'purple', 'darkorange', 'darkorange']",left,0.25,0,-0.5,0,./Stimuli/marblejar_23points0.jpg,"['purple', 'darkorange', 'purple', 'darkorange', 'darkorange', 'purple', 'purple', 'darkorange', 'darkorange']",same,f,task_ChangeDetection,4,3,2,1.0,,,,,0.0,0.0,0.0,'j',1.4460880756378174,1.4460880756378174,0.0,0.0,0.0,0.0,,,,,100.0
./Stimuli/marblejar_23points1.jpg,"['purple', 'green', 'green', 'darkorange', 'purple', 'purple', 'purple', 'purple', 'purple']",./Stimuli/marblejar_23points11.jpg,"['purple', 'darkorange', 'darkorange', 'purple', 'darkorange', 'darkorange', 'purple', 'darkorange', 'purple']",right,-0.25,0,0.5,0,./Stimuli/marblejar_23points11.jpg,"['purple', 'darkorange', 'darkorange', 'purple', 'darkorange', 'darkorange', 'purple', 'darkorange', 'purple']",same,f,task_JarSelection,4,3,2,1.0,,,,,0.0,0.0,0.0,,,,,0.0,0.0,0.0,'j',0.5077887773513794,0.5077887773513794,0.0,245.0
./Stimuli/marblejar_23points2.jpg,"['darkorange', 'purple', 'darkorange', 'purple', 'green', 'purple', 'purple', 'purple', 'darkorange']",./Stimuli/marblejar_23points12.jpg,"['darkorange', 'purple', 'purple', 'purple', 'darkorange', 'green', 'purple', 'purple', 'darkorange']",right,-0.25,0,0.5,0,./Stimuli/marblejar_23points22.jpg,"['purple', 'purple', 'darkorange', 'darkorange', 'darkorange', 'darkorange', 'darkorange', 'purple', 'purple']",different,j,task_ChangeDetection,4,3,2,1.0,,,,,1.0,1.0,0.0,'j',0.7790016531944275,0.7790016531944275,0.0,0.0,0.0,0.0,,,,,25.0
./Stimuli/marblejar_23points3.jpg,"['green', 'purple', 'purple', 'darkorange', 'purple', 'purple', 'purple', 'darkorange', 'darkorange']",./Stimuli/marblejar_23points13.jpg,"['green', 'purple', 'green', 'purple', 'darkorange', 'purple', 'purple', 'purple', 'purple']",right,-0.25,0,0.5,0,./Stimuli/marblejar_23points23.jpg,"['green', 'purple', 'darkorange', 'purple', 'purple', 'green', 'purple', 'purple', 'purple']",different,j,task_JarSelection,4,3,2,1.0,,,,,0.0,0.0,0.0,,,,,0.0,0.0,0.0,'f',0.43318259716033936,0.43318259716033936,0.0,116.0
./Stimuli/marblejar_23points4.jpg,"['purple', 'green', 'purple', 'purple', 'purple', 'darkorange', 'darkorange', 'darkorange', 'purple']",./Stimuli/marblejar_23points14.jpg,"['purple', 'purple', 'green', 'purple', 'purple', 'darkorange', 'darkorange', 'purple', 'darkorange']",right,-0.25,0,0.5,0,./Stimuli/marblejar_23points14.jpg,"['purple', 'purple', 'green', 'purple', 'purple', 'darkorange', 'darkorange', 'purple', 'darkorange']",same,f,task_ChangeDetection,4,3,2,1.0,,,,,0.0,0.0,0.0,'j',1.3994216918945312,1.3994216918945312,0.0,0.0,0.0,0.0,,,,,119.0
./Stimuli/marblejar_23points5.jpg,"['purple', 'purple', 'purple', 'darkorange', 'darkorange', 'purple', 'purple', 'darkorange', 'green']",./Stimuli/marblejar_23points15.jpg,"['darkorange', 'purple', 'darkorange', 'purple', 'purple', 'purple', 'green', 'darkorange', 'purple']",left,0.25,0,-0.5,0,./Stimuli/marblejar_23points5.jpg,"['purple', 'purple', 'purple', 'darkorange', 'darkorange', 'purple', 'purple', 'darkorange', 'green']",same,f,task_JarSelection,4,3,2,1.0,,,,,0.0,0.0,0.0,,,,,0.0,0.0,0.0,'j',0.6379338502883911,0.6379338502883911,0.0,167.0
./Stimuli/marblejar_23points6.jpg,"['darkorange', 'purple', 'purple', 'darkorange', 'purple', 'darkorange', 'purple', 'purple', 'green']",./Stimuli/marblejar_23points16.jpg,"['darkorange', 'darkorange', 'darkorange', 'purple', 'purple', 'purple', 'purple', 'green', 'purple']",left,0.25,0,-0.5,0,./Stimuli/marblejar_23points6.jpg,"['darkorange', 'purple', 'purple', 'darkorange', 'purple', 'darkorange', 'purple', 'purple', 'green']",same,f,task_ChangeDetection,4,3,2,1.0,,,,,0.0,0.0,0.0,'j',0.20903800427913666,0.20903800427913666,0.0,0.0,0.0,0.0,,,,,133.0
./Stimuli/marblejar_23points7.jpg,"['darkorange', 'green', 'purple', 'purple', 'darkorange', 'purple', 'purple', 'darkorange', 'purple']",./Stimuli/marblejar_23points17.jpg,"['purple', 'darkorange', 'darkorange', 'darkorange', 'darkorange', 'purple', 'purple', 'purple', 'darkorange']",left,0.25,0,-0.5,0,./Stimuli/marblejar_23points27.jpg,"['purple', 'darkorange', 'darkorange', 'green', 'purple', 'purple', 'darkorange', 'purple', 'purple']",different,j,task_JarSelection,4,3,2,1.0,,,,,0.0,0.0,0.0,,,,,0.0,0.0,0.0,'j',1.0437917709350586,1.0437917709350586,0.0,209.0
./Stimuli/marblejar_23points8.jpg,"['purple', 'darkorange', 'darkorange', 'darkorange', 'darkorange', 'purple', 'purple', 'darkorange', 'purple']",./Stimuli/marblejar_23points18.jpg,"['purple', 'purple', 'green', 'purple', 'darkorange', 'darkorange', 'purple', 'purple', 'darkorange']",left,0.25,0,-0.5,0,./Stimuli/marblejar_23points8.jpg,"['purple', 'darkorange', 'darkorange', 'darkorange', 'darkorange', 'purple', 'purple', 'darkorange', 'purple']",same,f,task_ChangeDetection,4,3,2,1.0,,,,,0.0,0.0,0.0,'j',1.1454235315322876,1.1454235315322876,0.0,0.0,0.0,0.0,,,,,279.0
./Stimuli/marblejar_23points9.jpg,"['green', 'purple', 'purple', 'purple', 'green', 'purple', 'purple', 'darkorange', 'purple']",./Stimuli/marblejar_23points19.jpg,"['darkorange', 'darkorange', 'purple', 'purple', 'purple', 'darkorange', 'darkorange', 'darkorange', 'purple']",right,-0.25,0,0.5,0,./Stimuli/marblejar_23points19.jpg,"['darkorange', 'darkorange', 'purple', 'purple', 'purple', 'darkorange', 'darkorange', 'darkorange', 'purple']",same,f,task_JarSelection,4,3,2,1.0,,,,,0.0,0.0,0.0,,,,,0.0,0.0,0.0,'j',0.3760751187801361,0.3760751187801361,0.0,135.0
./Stimuli/marblejar_22points0.jpg,"['darkorange', 'darkorange', 'darkorange', 'purple', 'purple', 'purple', 'purple', 'darkorange', 'purple']",./Stimuli/marblejar_22points5.jpg,"['purple', 'darkorange', 'purple', 'darkorange', 'purple', 'purple', 'darkorange', 'darkorange', 'purple']",right,-0.25,0,0.5,0,./Stimuli/marblejar_22points5.jpg,"['purple', 'darkorange', 'purple', 'darkorange', 'purple', 'purple', 'darkorange', 'darkorange', 'purple']",same,f,task_ChangeDetection,4,3,2,1.0,,,,,0.0,0.0,0.0,'j',0.5578252673149109,0.5578252673149109,0.0,0.0,0.0,0.0,,,,,104.0
./Stimuli/marblejar_22points1.jpg,"['purple', 'purple', 'purple', 'purple', 'darkorange', 'darkorange', 'purple', 'purple', 'green']",./Stimuli/marblejar_22points6.jpg,"['purple', 'darkorange', 'purple', 'darkorange', 'purple', 'darkorange', 'purple', 'purple', 'darkorange']",right,-0.25,0,0.5,0,./Stimuli/marblejar_22points11.jpg,"['darkorange', 'purple', 'purple', 'darkorange', 'purple', 'purple', 'purple', 'purple', 'green']",different,j,task_JarSelection,4,3,2,1.0,,,,,0.0,0.0,0.0,,,,,0.0,0.0,0.0,'f',1.2813724279403687,1.2813724279403687,0.0,291.0
./Stimuli/marblejar_22points2.jpg,"['purple', 'green', 'purple', 'purple', 'purple', 'darkorange', 'purple', 'purple', 'darkorange']",./Stimuli/marblejar_22points7.jpg,"['darkorange', 'purple', 'darkorange', 'darkorange', 'purple', 'darkorange', 'purple', 'purple', 'purple']",right,-0.25,0,0.5,0,./Stimuli/marblejar_22points12.jpg,"['darkorange', 'purple', 'darkorange', 'purple', 'purple', 'purple', 'darkorange', 'purple', 'darkorange']",different,j,task_ChangeDetection,4,3,2,1.0,,,,,0.0,0.0,0.0,'f',1.2929036617279053,1.2929036617279053,0.0,0.0,0.0,0.0,,,,,70.0
./Stimuli/marblejar_22points3.jpg,"['purple', 'darkorange', 'purple', 'purple', 'purple', 'darkorange', 'darkorange', 'darkorange', 'purple']",./Stimuli/marblejar_22points8.jpg,"['purple', 'purple', 'purple', 'purple', 'purple', 'green', 'purple', 'darkorange', 'darkorange']",left,0.25,0,-0.5,0,./Stimuli/marblejar_22points13.jpg,"['purple', 'purple', 'purple', 'purple', 'green', 'purple', 'darkorange', 'purple', 'darkorange']",different,j,task_JarSelection,4,3,2,1.0,,,,,0.0,0.0,0.0,,,,,0.0,0.0,0.0,'j',1.2947665452957153,1.2947665452957153,0.0,84.0
./Stimuli/marblejar_22points4.jpg,"['purple', 'purple', 'darkorange', 'purple', 'green', 'darkorange', 'purple', 'purple', 'purple']",./Stimuli/marblejar_22points9.jpg,"['purple', 'purple', 'purple', 'purple', 'darkorange', 'darkorange', 'darkorange', 'purple', 'darkorange']",left,0.25,0,-0.5,0,./Stimuli/marblejar_22points4.jpg,"['purple', 'purple', 'darkorange', 'purple', 'green', 'darkorange', 'purple', 'purple', 'purple']",same,f,task_ChangeDetection,4,3,2,1.0,,,,,1.0,1.0,0.0,'f',0.8200306296348572,0.8200306296348572,0.0,0.0,0.0,0.0,,,,,161.0
./Stimuli/marblejar_30points0.jpg,"['green', 'darkorange', 'darkorange', 'darkorange', 'green', 'darkorange', 'darkorange', 'green', 'darkorange']",./Stimuli/marblejar_30points5.jpg,"['green', 'green', 'purple', 'green', 'green', 'purple', 'green', 'darkorange', 'darkorange']",left,0.25,0,-0.5,0,./Stimuli/marblejar_30points0.jpg,"['green', 'darkorange', 'darkorange', 'darkorange', 'green', 'darkorange', 'darkorange', 'green', 'darkorange']",same,f,task_JarSelection,4,3,2,1.0,,,,,0.0,0.0,0.0,,,,,0.0,0.0,0.0,'j',0.866379976272583,0.866379976272583,0.0,43.0
./Stimuli/marblejar_30points1.jpg,"['green', 'darkorange', 'green', 'darkorange', 'green', 'darkorange', 'green', 'darkorange', 'purple']",./Stimuli/marblejar_30points6.jpg,"['darkorange', 'green', 'green', 'purple', 'green', 'green', 'purple', 'green', 'darkorange']",right,-0.25,0,0.5,0,./Stimuli/marblejar_30points11.jpg,"['darkorange', 'green', 'darkorange', 'green', 'green', 'green', 'purple', 'darkorange', 'darkorange']",different,j,task_ChangeDetection,4,3,2,1.0,,,,,1.0,1.0,0.0,'j',1.3789769411087036,1.3789769411087036,0.0,0.0,0.0,0.0,,,,,224.0
./Stimuli/marblejar_30points2.jpg,"['green', 'darkorange', 'green', 'darkorange', 'darkorange', 'green', 'green', 'darkorange', 'purple']",./Stimuli/marblejar_30points7.jpg,"['green', 'green', 'purple', 'purple', 'darkorange', 'green', 'darkorange', 'green', 'green']",right,-0.25,0,0.5,0,./Stimuli/marblejar_30points12.jpg,"['darkorange', 'darkorange', 'purple', 'green', 'darkorange', 'green', 'green', 'green', 'darkorange']",different,j,task_JarSelection,4,3,2,1.0,,,,,0.0,0.0,0.0,,,,,0.0,0.0,0.0,'j',1.294076919555664,1.294076919555664,0.0,3.0
./Stimuli/marblejar_30points3.jpg,"['green', 'green', 'purple', 'darkorange', 'darkorange', 'green', 'green', 'purple', 'green']",./Stimuli/marblejar_30points8.jpg,"['green', 'darkorange', 'purple', 'purple', 'darkorange', 'green', 'green', 'green', 'green']",right,-0.25,0,0.5,0,./Stimuli/marblejar_30points13.jpg,"['green', 'darkorange', 'darkorange', 'purple', 'purple', 'green', 'green', 'green', 'green']",different,j,task_ChangeDetection,4,3,2,1.0,,,,,1.0,1.0,0.0,'j',1.4746825695037842,1.4746825695037842,0.0,0.0,0.0,0.0,,,,,79.0
./Stimuli/marblejar_30points4.jpg,"['darkorange', 'purple', 'green', 'green', 'green', 'green', 'darkorange', 'darkorange', 'darkorange']",./Stimuli/marblejar_30points9.jpg,"['green', 'darkorange', 'green', 'darkorange', 'darkorange', 'darkorange', 'purple', 'green', 'green']",right,-0.25,0,0.5,0,./Stimuli/marblejar_30points9.jpg,"['green', 'darkorange', 'green', 'darkorange', 'darkorange', 'darkorange', 'purple', 'green', 'green']",same,f,task_JarSelection,4,3,2,1.0,,,,,0.0,0.0,0.0,,,,,0.0,0.0,0.0,'f',0.7515677213668823,0.7515677213668823,0.0,275.0
./Stimuli/reg_trials/rand_marblejar_0.jpg,"['purple', 'purple', 'purple', 'purple', 'darkorange', 'darkorange', 'green', 'darkorange', 'green']",./Stimuli/reg_trials/marblejar_right_0.jpg,"['purple', 'purple', 'purple', 'purple', 'purple', 'green', 'green', 'green', 'darkorange']",right,-0.25,0,0.5,0,./Stimuli/reg_trials/marblejar_right_0.jpg,"['purple', 'purple', 'purple', 'purple', 'purple', 'green', 'green', 'green', 'darkorange']",same,f,task_JarSelection,4,3,2,1.0,,,,,0.0,0.0,0.0,,,,,0.0,0.0,0.0,'f',1.0401508808135986,1.0401508808135986,0.0,197.0
./Stimuli/reg_trials/rand_marblejar_1.jpg,"['darkorange', 'darkorange', 'darkorange', 'darkorange', 'purple', 'darkorange', 'green', 'purple', 'darkorange']",./Stimuli/reg_trials/marblejar_right_1.jpg,"['darkorange', 'darkorange', 'purple', 'darkorange', 'purple', 'purple', 'purple', 'darkorange', 'purple']",right,-0.25,0,0.5,0,./Stimuli/reg_trials/marblejar3_right_different_1.jpg,"['darkorange', 'purple', 'green', 'darkorange', 'darkorange', 'darkorange', 'purple', 'purple', 'darkorange']",different,j,task_ChangeDetection,4,3,2,1.0,,,,,1.0,1.0,0.0,'j',1.7063826322555542,1.7063826322555542,0.0,0.0,0.0,0.0,,,,,27.0
./Stimuli/reg_trials/rand_marblejar_2.jpg,"['purple', 'purple', 'darkorange', 'purple', 'green', 'green', 'green', 'purple', 'purple']",./Stimuli/reg_trials/marblejar_right_2.jpg,"['purple', 'darkorange', 'darkorange', 'purple', 'darkorange', 'green', 'purple', 'purple', 'purple']",right,-0.25,0,0.5,0,./Stimuli/reg_trials/marblejar3_right_different_2.jpg,"['darkorange', 'darkorange', 'darkorange', 'darkorange', 'purple', 'purple', 'purple', 'darkorange', 'green']",different,j,task_JarSelection,4,3,2,1.0,,,,,0.0,0.0,0.0,,,,,0.0,0.0,0.0,'j',0.5243192315101624,0.5243192315101624,0.0,115.0
./Stimuli/reg_trials/rand_marblejar_3.jpg,"['green', 'darkorange', 'darkorange', 'purple', 'purple', 'purple', 'purple', 'purple', 'darkorange']",./Stimuli/reg_trials/marblejar_right_3.jpg,"['purple', 'darkorange', 'purple', 'purple', 'green', 'green', 'darkorange', 'purple', 'darkorange']",right,-0.25,0,0.5,0,./Stimuli/reg_trials/redo_marblejar_0.jpg,"['purple', 'purple', 'purple', 'darkorange', 'darkorange', 'purple', 'green', 'darkorange', 'green']",different,j,task_ChangeDetection,4,3,2,1.0,,,,,0.0,0.0,0.0,'f',1.168331265449524,1.168331265449524,0.0,0.0,0.0,0.0,,,,,298.0
./Stimuli/reg_trials/rand_marblejar_4.jpg,"['purple', 'darkorange', 'purple', 'purple', 'green', 'purple', 'darkorange', 'green', 'darkorange']",./Stimuli/reg_trials/marblejar_right_4.jpg,"['purple', 'darkorange', 'darkorange', 'darkorange', 'purple', 'green', 'purple', 'purple', 'purple']",right,-0.25,0,0.5,0,./Stimuli/reg_trials/marblejar3_right_different_4.jpg,"['green', 'darkorange', 'darkorange', 'darkorange', 'purple', 'purple', 'purple', 'darkorange', 'purple']",different,j,task_JarSelection,4,3,2,1.0,,,,,0.0,0.0,0.0,,,,,0.0,0.0,0.0,'f',0.5611497759819031,0.5611497759819031,0.0,48.0
./Stimuli/reg_trials/rand_marblejar_5.jpg,"['darkorange', 'purple', 'purple', 'purple', 'purple', 'darkorange', 'darkorange', 'purple', 'green']",./Stimuli/reg_trials/marblejar_right_5.jpg,"['purple', 'purple', 'purple', 'green', 'darkorange', 'green', 'green', 'darkorange', 'darkorange']",right,-0.25,0,0.5,0,./Stimuli/reg_trials/marblejar3_right_different_5.jpg,"['darkorange', 'green', 'purple', 'darkorange', 'darkorange', 'green', 'darkorange', 'green', 'green']",different,j,task_ChangeDetection,4,3,2,1.0,,,,,1.0,1.0,0.0,'j',0.6002447009086609,0.6002447009086609,0.0,0.0,0.0,0.0,,,,,148.0
./Stimuli/reg_trials/rand_marblejar_6.jpg,"['purple', 'purple', 'purple', 'purple', 'purple', 'purple', 'purple', 'green', 'purple']",./Stimuli/reg_trials/marblejar_right_6.jpg,"['purple', 'green', 'green', 'darkorange', 'purple', 'darkorange', 'darkorange', 'darkorange', 'darkorange']",right,-0.25,0,0.5,0,./Stimuli/reg_trials/marblejar3_right_different_6.jpg,"['darkorange', 'darkorange', 'darkorange', 'darkorange', 'darkorange', 'darkorange', 'purple', 'darkorange', 'darkorange']",different,j,task_JarSelection,4,3,2,1.0,,,,,0.0,0.0,0.0,,,,,0.0,0.0,0.0,'j',0.8451786041259766,0.8451786041259766,0.0,72.0
./Stimuli/reg_trials/rand_marblejar_7.jpg,"['purple', 'purple', 'purple', 'darkorange', 'purple', 'purple', 'darkorange', 'green', 'purple']",./Stimuli/reg_trials/marblejar_right_7.jpg,"['purple', 'darkorange', 'purple', 'purple', 'darkorange', 'purple', 'purple', 'purple', 'purple']",right,-0.25,0,0.5,0,./Stimuli/reg_trials/marblejar3_right_different_7.jpg,"['darkorange', 'darkorange', 'darkorange', 'purple', 'green', 'green', 'purple', 'darkorange', 'darkorange']",different,j,task_ChangeDetection,4,3,2,1.0,,,,,1.0,1.0,0.0,'j',1.07526433467865,1.07526433467865,0.0,0.0,0.0,0.0,,,,,32.0
./Stimuli/reg_trials/rand_marblejar_8.jpg,"['purple', 'purple', 'darkorange', 'darkorange', 'purple', 'purple', 'purple', 'darkorange', 'purple']",./Stimuli/reg_trials/marblejar_right_8.jpg,"['green', 'purple', 'darkorange', 'purple', 'purple', 'darkorange', 'darkorange', 'green', 'purple']",right,-0.25,0,0.5,0,./Stimuli/reg_trials/marblejar_right_8.jpg,"['green', 'purple', 'darkorange', 'purple', 'purple', 'darkorange', 'darkorange', 'green', 'purple']",same,f,task_JarSelection,4,3,2,1.0,,,,,0.0,0.0,0.0,,,,,0.0,0.0,0.0,'f',0.7717955112457275,0.7717955112457275,0.0,281.0
./Stimuli/reg_trials/rand_marblejar_9.jpg,"['darkorange', 'purple', 'darkorange', 'purple', 'purple', 'green', 'purple', 'purple', 'purple']",./Stimuli/reg_trials/marblejar_right_9.jpg,"['purple', 'purple', 'darkorange', 'darkorange', 'darkorange', 'purple', 'purple', 'green', 'darkorange']",right,-0.25,0,0.5,0,./Stimuli/reg_trials/marblejar_right_9.jpg,"['purple', 'purple', 'darkorange', 'darkorange', 'darkorange', 'purple', 'purple', 'green', 'darkorange']",same,f,task_ChangeDetection,4,3,2,1.0,,,,,0.0,0.0,0.0,'j',0.4023562967777252,0.4023562967777252,0.0,0.0,0.0,0.0,,,,,102.0
./Stimuli/reg_trials/rand_marblejar_10.jpg,"['purple', 'darkorange', 'darkorange', 'darkorange', 'purple', 'darkorange', 'darkorange', 'green', 'darkorange']",./Stimuli/reg_trials/marblejar_right_10.jpg,"['green', 'purple', 'darkorange', 'purple', 'purple', 'purple', 'purple', 'purple', 'purple']",right,-0.25,0,0.5,0,./Stimuli/reg_trials/marblejar3_right_different_10.jpg,"['darkorange', 'darkorange', 'darkorange', 'darkorange', 'green', 'darkorange', 'green', 'purple', 'purple']",different,j,task_JarSelection,4,3,2,1.0,,,,,0.0,0.0,0.0,,,,,0.0,0.0,0.0,'j',0.6339181661605835,0.6339181661605835,0.0,141.0
./Stimuli/reg_trials/rand_marblejar_11.jpg,"['purple', 'purple', 'green', 'darkorange', 'darkorange', 'purple', 'darkorange', 'purple', 'purple']",./Stimuli/reg_trials/marblejar_right_11.jpg,"['darkorange', 'darkorange', 'darkorange', 'green', 'darkorange', 'purple', 'darkorange', 'purple', 'green']",right,-0.25,0,0.5,0,./Stimuli/reg_trials/redo_marblejar_1.jpg,"['purple', 'darkorange', 'purple', 'purple', 'darkorange', 'green', 'darkorange', 'darkorange', 'purple']",different,j,task_ChangeDetection,4,3,2,1.0,,,,,1.0,1.0,0.0,'j',0.8858368992805481,0.8858368992805481,0.0,0.0,0.0,0.0,,,,,289.0
./Stimuli/reg_trials/rand_marblejar_12.jpg,"['purple', 'purple', 'purple', 'purple', 'purple', 'purple', 'green', 'purple', 'darkorange']",./Stimuli/reg_trials/marblejar_right_12.jpg,"['purple', 'darkorange', 'purple', 'darkorange', 'purple', 'darkorange', 'darkorange', 'darkorange', 'purple']",right,-0.25,0,0.5,0,./Stimuli/reg_trials/marblejar3_right_different_12.jpg,"['darkorange', 'darkorange', 'green', 'purple', 'purple', 'purple', 'purple', 'purple', 'purple']",different,j,task_JarSelection,4,3,2,1.0,,,,,0.0,0.0,0.0,,,,,0.0,0.0,0.0,'j',0.3635863661766052,0.3635863661766052,0.0,251.0
./Stimuli/reg_trials/rand_marblejar_13.jpg,"['purple', 'darkorange', 'purple', 'green', 'purple', 'green', 'purple', 'purple', 'darkorange']",./Stimuli/reg_trials/marblejar_right_13.jpg,"['darkorange', 'purple', 'green', 'green', 'green', 'green', 'green', 'purple', 'purple']",right,-0.25,0,0.5,0,./Stimuli/reg_trials/marblejar3_right_different_13.jpg,"['green', 'green', 'purple', 'green', 'purple', 'purple', 'purple', 'purple', 'darkorange']",different,j,task_ChangeDetection,4,3,2,1.0,,,,,1.0,1.0,0.0,'j',1.5675053596496582,1.5675053596496582,0.0,0.0,0.0,0.0,,,,,34.0
./Stimuli/reg_trials/rand_marblejar_14.jpg,"['purple', 'purple', 'purple', 'purple', 'purple', 'purple', 'green', 'purple', 'purple']",./Stimuli/reg_trials/marblejar_right_14.jpg,"['purple', 'purple', 'purple', 'darkorange', 'purple', 'darkorange', 'green', 'purple', 'purple']",right,-0.25,0,0.5,0,./Stimuli/reg_trials/marblejar_right_14.jpg,"['purple', 'purple', 'purple', 'darkorange', 'purple', 'darkorange', 'green', 'purple', 'purple']",same,f,task_JarSelection,4,3,2,1.0,,,,,0.0,0.0,0.0,,,,,0.0,0.0,0.0,'f',0.47212666273117065,0.47212666273117065,0.0,140.0
./Stimuli/reg_trials/rand_marblejar_15.jpg,"['purple', 'darkorange', 'darkorange', 'green', 'purple', 'purple', 'purple', 'purple', 'purple']",./Stimuli/reg_trials/marblejar_right_15.jpg,"['purple', 'purple', 'purple', 'purple', 'darkorange', 'darkorange', 'green', 'purple', 'green']",right,-0.25,0,0.5,0,./Stimuli/reg_trials/marblejar3_right_different_15.jpg,"['purple', 'green', 'purple', 'green', 'darkorange', 'darkorange', 'darkorange', 'darkorange', 'darkorange']",different,j,task_ChangeDetection,4,3,2,1.0,,,,,1.0,1.0,0.0,'j',1.0250577926635742,1.0250577926635742,0.0,0.0,0.0,0.0,,,,,81.0
./Stimuli/reg_trials/rand_marblejar_16.jpg,"['darkorange', 'purple', 'green', 'purple', 'purple', 'purple', 'darkorange', 'purple', 'purple']",./Stimuli/reg_trials/marblejar_right_16.jpg,"['purple', 'green', 'darkorange', 'purple', 'purple', 'green', 'darkorange', 'purple', 'green']",right,-0.25,0,0.5,0,./Stimuli/reg_trials/marblejar3_right_different_16.jpg,"['purple', 'purple', 'darkorange', 'darkorange', 'purple', 'purple', 'green', 'purple', 'darkorange']",different,j,task_JarSelection,4,3,2,1.0,,,,,0.0,0.0,0.0,,,,,0.0,0.0,0.0,'j',1.2241541147232056,1.2241541147232056,0.0,292.0
./Stimuli/reg_trials/rand_marblejar_17.jpg,"['purple', 'green', 'purple', 'purple', 'darkorange', 'darkorange', 'green', 'purple', 'darkorange']",./Stimuli/reg_trials/marblejar_right_17.jpg,"['purple', 'green', 'purple', 'purple', 'darkorange', 'purple', 'darkorange', 'green', 'darkorange']",right,-0.25,0,0.5,0,./Stimuli/reg_trials/marblejar3_right_different_17.jpg,"['darkorange', 'darkorange', 'green', 'purple', 'darkorange', 'purple', 'darkorange', 'purple', 'darkorange']",different,j,task_ChangeDetection,4,3,2,1.0,,,,,1.0,1.0,0.0,'j',1.4252903461456299,1.4252903461456299,0.0,0.0,0.0,0.0,,,,,265.0
./Stimuli/reg_trials/rand_marblejar_18.jpg,"['purple', 'darkorange', 'purple', 'purple', 'purple', 'purple', 'green', 'green', 'darkorange']",./Stimuli/reg_trials/marblejar_right_18.jpg,"['purple', 'purple', 'darkorange', 'darkorange', 'darkorange', 'green', 'darkorange', 'darkorange', 'purple']",right,-0.25,0,0.5,0,./Stimuli/reg_trials/marblejar_right_18.jpg,"['purple', 'purple', 'darkorange', 'darkorange', 'darkorange', 'green', 'darkorange', 'darkorange', 'purple']",same,f,task_JarSelection,4,3,2,1.0,,,,,0.0,0.0,0.0,,,,,0.0,0.0,0.0,'j',0.554286777973175,0.554286777973175,0.0,191.0
./Stimuli/reg_trials/rand_marblejar_19.jpg,"['purple', 'purple', 'purple', 'green', 'darkorange', 'purple', 'darkorange', 'darkorange', 'purple']",./Stimuli/reg_trials/marblejar_right_19.jpg,"['purple', 'green', 'purple', 'purple', 'darkorange', 'purple', 'purple', 'purple', 'purple']",right,-0.25,0,0.5,0,./Stimuli/reg_trials/marblejar_right_19.jpg,"['purple', 'green', 'purple', 'purple', 'darkorange', 'purple', 'purple', 'purple', 'purple']",same,f,task_ChangeDetection,4,3,2,1.0,,,,,1.0,1.0,0.0,'f',0.8328410983085632,0.8328410983085632,0.0,0.0,0.0,0.0,,,,,255.0
./Stimuli/reg_trials/rand_marblejar_20.jpg,"['purple', 'purple', 'darkorange', 'darkorange', 'purple', 'purple', 'purple', 'purple', 'darkorange']",./Stimuli/reg_trials/marblejar_right_20.jpg,"['darkorange', 'purple', 'purple', 'purple', 'darkorange', 'purple', 'darkorange', 'green', 'purple']",right,-0.25,0,0.5,0,./Stimuli/reg_trials/marblejar3_right_different_20.jpg,"['darkorange', 'darkorange', 'darkorange', 'darkorange', 'purple', 'purple', 'darkorange', 'green', 'purple']",different,j,task_JarSelection,4,3,2,1.0,,,,,0.0,0.0,0.0,,,,,0.0,0.0,0.0,'j',0.8915399312973022,0.8915399312973022,0.0,63.0
./Stimuli/reg_trials/rand_marblejar_21.jpg,"['green', 'darkorange', 'purple', 'purple', 'green', 'purple', 'darkorange', 'purple', 'darkorange']",./Stimuli/reg_trials/marblejar_right_21.jpg,"['green', 'darkorange', 'darkorange', 'green', 'purple', 'purple', 'darkorange', 'green', 'purple']",right,-0.25,0,0.5,0,./Stimuli/reg_trials/marblejar_right_21.jpg,"['green', 'darkorange', 'darkorange', 'green', 'purple', 'purple', 'darkorange', 'green', 'purple']",same,f,task_ChangeDetection,4,3,2,1.0,,,,,1.0,1.0,0.0,'f',1.145351767539978,1.145351767539978,0.0,0.0,0.0,0.0,,,,,185.0
./Stimuli/reg_trials/rand_marblejar_22.jpg,"['purple', 'green', 'darkorange', 'purple', 'darkorange', 'darkorange', 'green', 'purple', 'purple']",./Stimuli/reg_trials/marblejar_right_22.jpg,"['purple', 'purple', 'purple', 'darkorange', 'purple', 'purple', 'darkorange', 'purple', 'darkorange']",right,-0.25,0,0.5,0,./Stimuli/reg_trials/marblejar_right_22.jpg,"['purple', 'purple', 'purple', 'darkorange', 'purple', 'purple', 'darkorange', 'purple', 'darkorange']",same,f,task_JarSelection,4,3,2,1.0,,,,,0.0,0.0,0.0,,,,,0.0,0.0,0.0,'j',0.5469914674758911,0.5469914674758911,0.0,137.0
./Stimuli/reg_trials/rand_marblejar_23.jpg,"['purple', 'purple', 'green', 'green', 'darkorange', 'darkorange', 'darkorange', 'purple', 'purple']",./Stimuli/reg_trials/marblejar_right_23.jpg,"['darkorange', 'purple', 'purple', 'green', 'green', 'purple', 'darkorange', 'green', 'green']",right,-0.25,0,0.5,0,./Stimuli/reg_trials/marblejar3_right_different_23.jpg,"['purple', 'darkorange', 'purple', 'purple', 'purple', 'purple', 'purple', 'darkorange', 'purple']",different,j,task_ChangeDetection,4,3,2,1.0,,,,,1.0,1.0,0.0,'j',0.6431971192359924,0.6431971192359924,0.0,0.0,0.0,0.0,,,,,13.0
./Stimuli/reg_trials/rand_marblejar_24.jpg,"['purple', 'purple', 'darkorange', 'green', 'darkorange', 'purple', 'green', 'green', 'darkorange']",./Stimuli/reg_trials/marblejar_right_24.jpg,"['purple', 'darkorange', 'purple', 'darkorange', 'darkorange', 'purple', 'green', 'purple', 'green']",right,-0.25,0,0.5,0,./Stimuli/reg_trials/marblejar_right_24.jpg,"['purple', 'darkorange', 'purple', 'darkorange', 'darkorange', 'purple', 'green', 'purple', 'green']",same,f,task_JarSelection,4,3,2,1.0,,,,,0.0,0.0,0.0,,,,,0.0,0.0,0.0,'f',0.31346356868743896,0.31346356868743896,0.0,87.0
./Stimuli/reg_trials/rand_marblejar_25.jpg,"['purple', 'purple', 'darkorange', 'green', 'purple', 'purple', 'purple', 'purple', 'green']",./Stimuli/reg_trials/marblejar_right_25.jpg,"['purple', 'green', 'purple', 'purple', 'darkorange', 'green', 'purple', 'darkorange', 'darkorange']",right,-0.25,0,0.5,0,./Stimuli/reg_trials/marblejar_right_25.jpg,"['purple', 'green', 'purple', 'purple', 'darkorange', 'green', 'purple', 'darkorange', 'darkorange']",same,f,task_ChangeDetection,4,3,2,1.0,,,,,0.0,0.0,0.0,'j',1.1913782358169556,1.1913782358169556,0.0,0.0,0.0,0.0,,,,,37.0
./Stimuli/reg_trials/rand_marblejar_26.jpg,"['green', 'darkorange', 'darkorange', 'purple', 'purple', 'purple', 'darkorange', 'green', 'purple']",./Stimuli/reg_trials/marblejar_right_26.jpg,"['purple', 'purple', 'purple', 'darkorange', 'green', 'darkorange', 'purple', 'purple', 'purple']",right,-0.25,0,0.5,0,./Stimuli/reg_trials/marblejar3_right_different_26.jpg,"['green', 'purple', 'darkorange', 'darkorange', 'darkorange', 'darkorange', 'purple', 'purple', 'green']",different,j,task_JarSelection,4,3,2,1.0,,,,,0.0,0.0,0.0,,,,,0.0,0.0,0.0,'f',0.6212781667709351,0.6212781667709351,0.0,183.0
./Stimuli/reg_trials/rand_marblejar_27.jpg,"['darkorange', 'darkorange', 'purple', 'darkorange', 'darkorange', 'green', 'purple', 'purple', 'purple']",./Stimuli/reg_trials/marblejar_right_27.jpg,"['darkorange', 'darkorange', 'purple', 'darkorange', 'purple', 'green', 'darkorange', 'darkorange', 'darkorange']",right,-0.25,0,0.5,0,./Stimuli/reg_trials/marblejar3_right_different_27.jpg,"['green', 'darkorange', 'darkorange', 'green', 'purple', 'green', 'purple', 'green', 'green']",different,j,task_ChangeDetection,4,3,2,1.0,,,,,1.0,1.0,0.0,'j',0.984900712966919,0.984900712966919,0.0,0.0,0.0,0.0,,,,,82.0
./Stimuli/reg_trials/rand_marblejar_28.jpg,"['purple', 'darkorange', 'green', 'green', 'purple', 'green', 'purple', 'purple', 'purple']",./Stimuli/reg_trials/marblejar_right_28.jpg,"['darkorange', 'purple', 'purple', 'purple', 'purple', 'green', 'darkorange', 'darkorange', 'green']",right,-0.25,0,0.5,0,./Stimuli/reg_trials/marblejar3_right_different_28.jpg,"['green', 'purple', 'darkorange', 'darkorange', 'purple', 'darkorange', 'purple', 'darkorange', 'darkorange']",different,j,task_JarSelection,4,3,2,1.0,,,,,0.0,0.0,0.0,,,,,0.0,0.0,0.0,'f',0.4043060541152954,0.4043060541152954,0.0,256.0
./Stimuli/reg_trials/rand_marblejar_29.jpg,"['darkorange', 'purple', 'green', 'purple', 'darkorange', 'purple', 'purple', 'green', 'darkorange']",./Stimuli/reg_trials/marblejar_right_29.jpg,"['darkorange', 'purple', 'purple', 'darkorange', 'darkorange', 'green', 'darkorange', 'darkorange', 'purple']",right,-0.25,0,0.5,0,./Stimuli/reg_trials/marblejar_right_29.jpg,"['darkorange', 'purple', 'purple', 'darkorange', 'darkorange', 'green', 'darkorange', 'darkorange', 'purple']",same,f,task_ChangeDetection,4,3,2,1.0,,,,,0.0,0.0,0.0,'j',1.022829532623291,1.022829532623291,0.0,0.0,0.0,0.0,,,,,204.0
./Stimuli/reg_trials/rand_marblejar_30.jpg,"['darkorange', 'purple', 'darkorange', 'purple', 'darkorange', 'darkorange', 'purple', 'green', 'purple']",./Stimuli/reg_trials/marblejar_right_30.jpg,"['purple', 'purple', 'darkorange', 'darkorange', 'purple', 'purple', 'purple', 'purple', 'purple']",right,-0.25,0,0.5,0,./Stimuli/reg_trials/marblejar_right_30.jpg,"['purple', 'purple', 'darkorange', 'darkorange', 'purple', 'purple', 'purple', 'purple', 'purple']",same,f,task_JarSelection,4,3,2,1.0,,,,,0.0,0.0,0.0,,,,,0.0,0.0,0.0,'f',0.5283123254776001,0.5283123254776001,0.0,57.0
./Stimuli/reg_trials/rand_marblejar_31.jpg,"['purple', 'purple', 'purple', 'purple', 'purple', 'darkorange', 'purple', 'purple', 'purple']",./Stimuli/reg_trials/marblejar_right_31.jpg,"['purple', 'darkorange', 'darkorange', 'purple', 'darkorange', 'green', 'darkorange', 'darkorange', 'green']",right,-0.25,0,0.5,0,./Stimuli/reg_trials/marblejar_right_31.jpg,"['purple', 'darkorange', 'darkorange', 'purple', 'darkorange', 'green', 'darkorange', 'darkorange', 'green']",same,f,task_ChangeDetection,4,3,2,1.0,,,,,0.0,0.0,0.0,'j',0.8103849291801453,0.8103849291801453,0.0,0.0,0.0,0.0,,,,,93.0
./Stimuli/reg_trials/rand_marblejar_32.jpg,"['purple', 'darkorange', 'darkorange', 'purple', 'purple', 'purple', 'purple', 'purple', 'darkorange']",./Stimuli/reg_trials/marblejar_right_32.jpg,"['purple', 'darkorange', 'green', 'purple', 'darkorange', 'green', 'purple', 'darkorange', 'darkorange']",right,-0.25,0,0.5,0,./Stimuli/reg_trials/marblejar_right_32.jpg,"['purple', 'darkorange', 'green', 'purple', 'darkorange', 'green', 'purple', 'darkorange', 'darkorange']",same,f,task_JarSelection,4,3,2,1.0,,,,,0.0,0.0,0.0,,,,,0.0,0.0,0.0,'f',3.231109380722046,3.231109380722046,0.0,95.0
./Stimuli/reg_trials/rand_marblejar_33.jpg,"['darkorange', 'purple', 'purple', 'green', 'green', 'purple', 'purple', 'purple', 'purple']",./Stimuli/reg_trials/marblejar_right_33.jpg,"['darkorange', 'darkorange', 'green', 'purple', 'purple', 'green', 'darkorange', 'darkorange', 'purple']",right,-0.25,0,0.5,0,./Stimuli/reg_trials/marblejar_right_33.jpg,"['darkorange', 'darkorange', 'green', 'purple', 'purple', 'green', 'darkorange', 'darkorange', 'purple']",same,f,task_ChangeDetection,4,3,2,1.0,,,,,1.0,1.0,0.0,'f',0.6872434020042419,0.6872434020042419,0.0,0.0,0.0,0.0,,,,,235.0
./Stimuli/reg_trials/rand_marblejar_34.jpg,"['green', 'purple', 'purple', 'purple', 'purple', 'green', 'darkorange', 'green', 'darkorange']",./Stimuli/reg_trials/marblejar_right_34.jpg,"['purple', 'purple', 'purple', 'purple', 'purple', 'green', 'darkorange', 'purple', 'purple']",right,-0.25,0,0.5,0,./Stimuli/reg_trials/marblejar3_right_different_34.jpg,"['green', 'purple', 'darkorange', 'purple', 'purple', 'green', 'purple', 'darkorange', 'purple']",different,j,task_JarSelection,4,3,2,1.0,,,,,0.0,0.0,0.0,,,,,0.0,0.0,0.0,'f',0.8888399004936218,0.8888399004936218,0.0,219.0
./Stimuli/reg_trials/rand_marblejar_35.jpg,"['purple', 'purple', 'purple', 'green', 'green', 'purple', 'darkorange', 'darkorange', 'purple']",./Stimuli/reg_trials/marblejar_right_35.jpg,"['darkorange', 'purple', 'darkorange', 'purple', 'purple', 'purple', 'darkorange', 'green', 'darkorange']",right,-0.25,0,0.5,0,./Stimuli/reg_trials/marblejar3_right_different_35.jpg,"['darkorange', 'darkorange', 'purple', 'darkorange', 'purple', 'purple', 'darkorange', 'green', 'darkorange']",different,j,task_ChangeDetection,4,3,2,1.0,,,,,1.0,1.0,0.0,'j',0.7672581076622009,0.7672581076622009,0.0,0.0,0.0,0.0,,,,,236.0
./Stimuli/reg_trials/rand_marblejar_36.jpg,"['darkorange', 'purple', 'purple', 'purple', 'darkorange', 'green', 'purple', 'purple', 'purple']",./Stimuli/reg_trials/marblejar_right_36.jpg,"['purple', 'purple', 'darkorange', 'darkorange', 'darkorange', 'purple', 'purple', 'darkorange', 'purple']",right,-0.25,0,0.5,0,./Stimuli/reg_trials/marblejar_right_36.jpg,"['purple', 'purple', 'darkorange', 'darkorange', 'darkorange', 'purple', 'purple', 'darkorange', 'purple']",same,f,task_JarSelection,4,3,2,1.0,,,,,0.0,0.0,0.0,,,,,0.0,0.0,0.0,'f',0.9605891108512878,0.9605891108512878,0.0,189.0
./Stimuli/reg_trials/rand_marblejar_37.jpg,"['darkorange', 'green', 'green', 'purple', 'purple', 'green', 'purple', 'purple', 'green']",./Stimuli/reg_trials/marblejar_right_37.jpg,"['darkorange', 'purple', 'darkorange', 'purple', 'purple', 'green', 'darkorange', 'green', 'darkorange']",right,-0.25,0,0.5,0,./Stimuli/reg_trials/marblejar3_right_different_37.jpg,"['purple', 'darkorange', 'purple', 'darkorange', 'purple', 'green', 'darkorange', 'darkorange', 'purple']",different,j,task_ChangeDetection,4,3,2,1.0,,,,,0.0,0.0,0.0,'f',1.115811824798584,1.115811824798584,0.0,0.0,0.0,0.0,,,,,138.0
./Stimuli/reg_trials/rand_marblejar_38.jpg,"['green', 'darkorange', 'purple', 'purple', 'purple', 'purple', 'green', 'purple', 'purple']",./Stimuli/reg_trials/marblejar_right_38.jpg,"['darkorange', 'green', 'purple', 'purple', 'purple', 'purple', 'darkorange', 'green', 'darkorange']",right,-0.25,0,0.5,0,./Stimuli/reg_trials/marblejar_right_38.jpg,"['darkorange', 'green', 'purple', 'purple', 'purple', 'purple', 'darkorange', 'green', 'darkorange']",same,f,task_JarSelection,4,3,2,1.0,,,,,0.0,0.0,0.0,,,,,0.0,0.0,0.0,'j',0.6188061833381653,0.6188061833381653,0.0,214.0
./Stimuli/reg_trials/rand_marblejar_39.jpg,"['darkorange', 'green', 'purple', 'darkorange', 'purple', 'green', 'purple', 'purple', 'darkorange']",./Stimuli/reg_trials/marblejar_right_39.jpg,"['green', 'purple', 'darkorange', 'green', 'darkorange', 'darkorange', 'darkorange', 'darkorange', 'green']",right,-0.25,0,0.5,0,./Stimuli/reg_trials/marblejar3_right_different_39.jpg,"['purple', 'purple', 'purple', 'purple', 'purple', 'darkorange', 'darkorange', 'darkorange', 'purple']",different,j,task_ChangeDetection,4,3,2,1.0,,,,,1.0,1.0,0.0,'j',1.3368499279022217,1.3368499279022217,0.0,0.0,0.0,0.0,,,,,88.0
./Stimuli/reg_trials/rand_marblejar_40.jpg,"['darkorange', 'darkorange', 'darkorange', 'green', 'green', 'purple', 'purple', 'purple', 'purple']",./Stimuli/reg_trials/marblejar_right_40.jpg,"['purple', 'green', 'darkorange', 'purple', 'purple', 'darkorange', 'purple', 'darkorange', 'purple']",right,-0.25,0,0.5,0,./Stimuli/reg_trials/marblejar3_right_different_40.jpg,"['purple', 'purple', 'green', 'purple', 'darkorange', 'darkorange', 'darkorange', 'green', 'darkorange']",different,j,task_JarSelection,4,3,2,1.0,,,,,0.0,0.0,0.0,,,,,0.0,0.0,0.0,'f',0.6303461790084839,0.6303461790084839,0.0,106.0
./Stimuli/reg_trials/rand_marblejar_41.jpg,"['purple', 'darkorange', 'darkorange', 'darkorange', 'darkorange', 'darkorange', 'purple', 'purple', 'darkorange']",./Stimuli/reg_trials/marblejar_right_41.jpg,"['purple', 'purple', 'darkorange', 'purple', 'darkorange', 'purple', 'darkorange', 'purple', 'darkorange']",right,-0.25,0,0.5,0,./Stimuli/reg_trials/redo_marblejar_2.jpg,"['purple', 'purple', 'darkorange', 'purple', 'purple', 'darkorange', 'purple', 'purple', 'purple']",different,j,task_ChangeDetection,4,3,2,1.0,,,,,1.0,1.0,0.0,'j',1.2829357385635376,1.2829357385635376,0.0,0.0,0.0,0.0,,,,,166.0
./Stimuli/reg_trials/rand_marblejar_42.jpg,"['green', 'darkorange', 'purple', 'purple', 'darkorange', 'darkorange', 'darkorange', 'purple', 'green']",./Stimuli/reg_trials/marblejar_right_42.jpg,"['darkorange', 'darkorange', 'darkorange', 'purple', 'purple', 'green', 'purple', 'green', 'darkorange']",right,-0.25,0,0.5,0,./Stimuli/reg_trials/marblejar3_right_different_42.jpg,"['purple', 'purple', 'purple', 'green', 'purple', 'purple', 'darkorange', 'purple', 'green']",different,j,task_JarSelection,4,3,2,1.0,,,,,0.0,0.0,0.0,,,,,0.0,0.0,0.0,'f',2.989656925201416,2.989656925201416,0.0,195.0
./Stimuli/reg_trials/rand_marblejar_43.jpg,"['purple', 'purple', 'purple', 'darkorange', 'purple', 'darkorange', 'darkorange', 'green', 'purple']",./Stimuli/reg_trials/marblejar_right_43.jpg,"['purple', 'darkorange', 'purple', 'darkorange', 'purple', 'darkorange', 'purple', 'green', 'darkorange']",right,-0.25,0,0.5,0,./Stimuli/reg_trials/marblejar3_right_different_43.jpg,"['purple', 'purple', 'purple', 'green', 'purple', 'darkorange', 'purple', 'darkorange', 'darkorange']",different,j,task_ChangeDetection,4,3,2,1.0,,,,,0.0,0.0,0.0,'f',1.2451996803283691,1.2451996803283691,0.0,0.0,0.0,0.0,,,,,216.0
./Stimuli/reg_trials/rand_marblejar_44.jpg,"['purple', 'purple', 'darkorange', 'green', 'purple', 'purple', 'purple', 'darkorange', 'purple']",./Stimuli/reg_trials/marblejar_right_44.jpg,"['purple', 'purple', 'purple', 'darkorange', 'green', 'green', 'purple', 'darkorange', 'purple']",right,-0.25,0,0.5,0,./Stimuli/reg_trials/marblejar_right_44.jpg,"['purple', 'purple', 'purple', 'darkorange', 'green', 'green', 'purple', 'darkorange', 'purple']",same,f,task_JarSelection,4,3,2,1.0,,,,,0.0,0.0,0.0,,,,,0.0,0.0,0.0,'j',0.4770122468471527,0.4770122468471527,0.0,238.0
./Stimuli/reg_trials/rand_marblejar_45.jpg,"['green', 'purple', 'darkorange', 'darkorange', 'purple', 'purple', 'green', 'purple', 'darkorange']",./Stimuli/reg_trials/marblejar_right_45.jpg,"['purple', 'green', 'green', 'green', 'purple', 'purple', 'purple', 'darkorange', 'darkorange']",right,-0.25,0,0.5,0,./Stimuli/reg_trials/marblejar_right_45.jpg,"['purple', 'green', 'green', 'green', 'purple', 'purple', 'purple', 'darkorange', 'darkorange']",same,f,task_ChangeDetection,4,3,2,1.0,,,,,0.0,0.0,0.0,'j',1.156840443611145,1.156840443611145,0.0,0.0,0.0,0.0,,,,,169.0
./Stimuli/reg_trials/rand_marblejar_46.jpg,"['purple', 'purple', 'purple', 'green', 'green', 'purple', 'purple', 'purple', 'darkorange']",./Stimuli/reg_trials/marblejar_right_46.jpg,"['green', 'darkorange', 'darkorange', 'purple', 'green', 'darkorange', 'purple', 'green', 'purple']",right,-0.25,0,0.5,0,./Stimuli/reg_trials/marblejar3_right_different_46.jpg,"['darkorange', 'green', 'green', 'darkorange', 'purple', 'purple', 'purple', 'purple', 'darkorange']",different,j,task_JarSelection,4,3,2,1.0,,,,,0.0,0.0,0.0,,,,,0.0,0.0,0.0,'f',0.8136375546455383,0.8136375546455383,0.0,36.0
./Stimuli/reg_trials/rand_marblejar_47.jpg,"['green', 'darkorange', 'purple', 'purple', 'purple', 'purple', 'darkorange', 'darkorange', 'purple']",./Stimuli/reg_trials/marblejar_right_47.jpg,"['purple', 'purple', 'darkorange', 'darkorange', 'purple', 'purple', 'purple', 'green', 'purple']",right,-0.25,0,0.5,0,./Stimuli/reg_trials/marblejar_right_47.jpg,"['purple', 'purple', 'darkorange', 'darkorange', 'purple', 'purple', 'purple', 'green', 'purple']",same,f,task_ChangeDetection,4,3,2,1.0,,,,,1.0,1.0,0.0,'f',1.2631877660751343,1.2631877660751343,0.0,0.0,0.0,0.0,,,,,150.0
./Stimuli/reg_trials/rand_marblejar_48.jpg,"['darkorange', 'green', 'purple', 'purple', 'purple', 'darkorange', 'green', 'green', 'darkorange']",./Stimuli/reg_trials/marblejar_right_48.jpg,"['purple', 'darkorange', 'purple', 'darkorange', 'purple', 'purple', 'darkorange', 'green', 'purple']",right,-0.25,0,0.5,0,./Stimuli/reg_trials/marblejar_right_48.jpg,"['purple', 'darkorange', 'purple', 'darkorange', 'purple', 'purple', 'darkorange', 'green', 'purple']",same,f,task_JarSelection,4,3,2,1.0,,,,,0.0,0.0,0.0,,,,,0.0,0.0,0.0,'f',0.5367243885993958,0.5367243885993958,0.0,213.0
./Stimuli/reg_trials/rand_marblejar_49.jpg,"['purple', 'purple', 'purple', 'purple', 'purple', 'purple', 'green', 'darkorange', 'darkorange']",./Stimuli/reg_trials/marblejar_right_49.jpg,"['darkorange', 'green', 'darkorange', 'purple', 'darkorange', 'purple', 'purple', 'green', 'purple']",right,-0.25,0,0.5,0,./Stimuli/reg_trials/marblejar_right_49.jpg,"['darkorange', 'green', 'darkorange', 'purple', 'darkorange', 'purple', 'purple', 'green', 'purple']",same,f,task_ChangeDetection,4,3,2,1.0,,,,,1.0,1.0,0.0,'f',1.0462186336517334,1.0462186336517334,0.0,0.0,0.0,0.0,,,,,271.0
./Stimuli/reg_trials/rand_marblejar_50.jpg,"['purple', 'darkorange', 'purple', 'purple', 'purple', 'purple', 'green', 'purple', 'purple']",./Stimuli/reg_trials/marblejar_right_50.jpg,"['purple', 'darkorange', 'darkorange', 'purple', 'green', 'purple', 'purple', 'darkorange', 'purple']",right,-0.25,0,0.5,0,./Stimuli/reg_trials/marblejar_right_50.jpg,"['purple', 'darkorange', 'darkorange', 'purple', 'green', 'purple', 'purple', 'darkorange', 'purple']",same,f,task_JarSelection,4,3,2,1.0,,,,,0.0,0.0,0.0,,,,,0.0,0.0,0.0,'j',0.8525843024253845,0.8525843024253845,0.0,80.0
./Stimuli/reg_trials/rand_marblejar_51.jpg,"['green', 'purple', 'darkorange', 'purple', 'green', 'darkorange', 'green', 'darkorange', 'darkorange']",./Stimuli/reg_trials/marblejar_right_51.jpg,"['purple', 'purple', 'darkorange', 'purple', 'purple', 'darkorange', 'purple', 'purple', 'purple']",right,-0.25,0,0.5,0,./Stimuli/reg_trials/marblejar_right_51.jpg,"['purple', 'purple', 'darkorange', 'purple', 'purple', 'darkorange', 'purple', 'purple', 'purple']",same,f,task_ChangeDetection,4,3,2,1.0,,,,,0.0,0.0,0.0,'j',1.1860111951828003,1.1860111951828003,0.0,0.0,0.0,0.0,,,,,287.0
./Stimuli/reg_trials/rand_marblejar_52.jpg,"['purple', 'purple', 'darkorange', 'purple', 'green', 'purple', 'purple', 'green', 'purple']",./Stimuli/reg_trials/marblejar_right_52.jpg,"['purple', 'purple', 'darkorange', 'purple', 'green', 'darkorange', 'darkorange', 'green', 'purple']",right,-0.25,0,0.5,0,./Stimuli/reg_trials/marblejar3_right_different_52.jpg,"['green', 'green', 'darkorange', 'darkorange', 'green', 'purple', 'darkorange', 'darkorange', 'darkorange']",different,j,task_JarSelection,4,3,2,1.0,,,,,0.0,0.0,0.0,,,,,0.0,0.0,0.0,'j',1.2933870553970337,1.2933870553970337,0.0,107.0
./Stimuli/reg_trials/rand_marblejar_53.jpg,"['darkorange', 'darkorange', 'darkorange', 'purple', 'green', 'green', 'purple', 'purple', 'purple']",./Stimuli/reg_trials/marblejar_right_53.jpg,"['purple', 'purple', 'darkorange', 'darkorange', 'darkorange', 'darkorange', 'darkorange', 'green', 'green']",right,-0.25,0,0.5,0,./Stimuli/reg_trials/marblejar_right_53.jpg,"['purple', 'purple', 'darkorange', 'darkorange', 'darkorange', 'darkorange', 'darkorange', 'green', 'green']",same,f,task_ChangeDetection,4,3,2,1.0,,,,,1.0,1.0,0.0,'f',0.8177380561828613,0.8177380561828613,0.0,0.0,0.0,0.0,,,,,146.0
./Stimuli/reg_trials/rand_marblejar_54.jpg,"['darkorange', 'darkorange', 'purple', 'purple', 'purple', 'purple', 'purple', 'purple', 'purple']",./Stimuli/reg_trials/marblejar_right_54.jpg,"['darkorange', 'purple', 'purple', 'purple', 'green', 'purple', 'purple', 'green', 'green']",right,-0.25,0,0.5,0,./Stimuli/reg_trials/marblejar3_right_different_54.jpg,"['darkorange', 'purple', 'green', 'purple', 'green', 'darkorange', 'darkorange', 'green', 'darkorange']",different,j,task_JarSelection,4,3,2,1.0,,,,,0.0,0.0,0.0,,,,,0.0,0.0,0.0,'j',1.0080523490905762,1.0080523490905762,0.0,202.0
./Stimuli/reg_trials/rand_marblejar_55.jpg,"['darkorange', 'darkorange', 'darkorange', 'purple', 'purple', 'purple', 'darkorange', 'darkorange', 'darkorange']",./Stimuli/reg_trials/marblejar_right_55.jpg,"['green', 'darkorange', 'green', 'darkorange', 'green', 'darkorange', 'green', 'green', 'purple']",right,-0.25,0,0.5,0,./Stimuli/reg_trials/marblejar_right_55.jpg,"['green', 'darkorange', 'green', 'darkorange', 'green', 'darkorange', 'green', 'green', 'purple']",same,f,task_ChangeDetection,4,3,2,1.0,,,,,1.0,1.0,0.0,'f',0.8433206677436829,0.8433206677436829,0.0,0.0,0.0,0.0,,,,,190.0
./Stimuli/reg_trials/rand_marblejar_56.jpg,"['purple', 'green', 'purple', 'green', 'purple', 'darkorange', 'purple', 'purple', 'darkorange']",./Stimuli/reg_trials/marblejar_right_56.jpg,"['purple', 'purple', 'purple', 'purple', 'purple', 'purple', 'darkorange', 'darkorange', 'darkorange']",right,-0.25,0,0.5,0,./Stimuli/reg_trials/marblejar3_right_different_56.jpg,"['green', 'purple', 'darkorange', 'purple', 'green', 'green', 'darkorange', 'darkorange', 'purple']",different,j,task_JarSelection,4,3,2,1.0,,,,,0.0,0.0,0.0,,,,,0.0,0.0,0.0,'f',0.5999852418899536,0.5999852418899536,0.0,98.0
./Stimuli/reg_trials/rand_marblejar_57.jpg,"['darkorange', 'green', 'purple', 'darkorange', 'darkorange', 'green', 'green', 'purple', 'purple']",./Stimuli/reg_trials/marblejar_right_57.jpg,"['green', 'purple', 'purple', 'darkorange', 'purple', 'darkorange', 'darkorange', 'purple', 'green']",right,-0.25,0,0.5,0,./Stimuli/reg_trials/marblejar_right_57.jpg,"['green', 'purple', 'purple', 'darkorange', 'purple', 'darkorange', 'darkorange', 'purple', 'green']",same,f,task_ChangeDetection,4,3,2,1.0,,,,,1.0,1.0,0.0,'f',0.4534912407398224,0.4534912407398224,0.0,0.0,0.0,0.0,,,,,85.0
./Stimuli/reg_trials/rand_marblejar_58.jpg,"['purple', 'purple', 'darkorange', 'darkorange', 'purple', 'purple', 'darkorange', 'darkorange', 'purple']",./Stimuli/reg_trials/marblejar_right_58.jpg,"['green', 'purple', 'green', 'darkorange', 'darkorange', 'purple', 'green', 'green', 'darkorange']",right,-0.25,0,0.5,0,./Stimuli/reg_trials/marblejar_right_58.jpg,"['green', 'purple', 'green', 'darkorange', 'darkorange', 'purple', 'green', 'green', 'darkorange']",same,f,task_JarSelection,4,3,2,1.0,,,,,0.0,0.0,0.0,,,,,0.0,0.0,0.0,'f',0.6672590970993042,0.6672590970993042,0.0,134.0
./Stimuli/reg_trials/rand_marblejar_59.jpg,"['purple', 'darkorange', 'purple', 'purple', 'purple', 'darkorange', 'darkorange', 'green', 'darkorange']",./Stimuli/reg_trials/marblejar_right_59.jpg,"['green', 'green', 'darkorange', 'darkorange', 'purple', 'purple', 'darkorange', 'green', 'green']",right,-0.25,0,0.5,0,./Stimuli/reg_trials/marblejar_right_59.jpg,"['green', 'green', 'darkorange', 'darkorange', 'purple', 'purple', 'darkorange', 'green', 'green']",same,f,task_ChangeDetection,4,3,2,1.0,,,,,1.0,1.0,0.0,'f',0.8528569340705872,0.8528569340705872,0.0,0.0,0.0,0.0,,,,,254.0
./Stimuli/reg_trials/rand_marblejar_60.jpg,"['purple', 'purple', 'purple', 'purple', 'purple', 'purple', 'darkorange', 'purple', 'purple']",./Stimuli/reg_trials/marblejar_right_60.jpg,"['purple', 'green', 'darkorange', 'green', 'darkorange', 'purple', 'purple', 'darkorange', 'darkorange']",right,-0.25,0,0.5,0,./Stimuli/reg_trials/marblejar3_right_different_60.jpg,"['purple', 'purple', 'purple', 'purple', 'darkorange', 'purple', 'darkorange', 'purple', 'purple']",different,j,task_JarSelection,4,3,2,1.0,,,,,0.0,0.0,0.0,,,,,0.0,0.0,0.0,'j',0.90245521068573,0.90245521068573,0.0,1.0
./Stimuli/reg_trials/rand_marblejar_61.jpg,"['green', 'purple', 'darkorange', 'darkorange', 'green', 'purple', 'darkorange', 'darkorange', 'darkorange']",./Stimuli/reg_trials/marblejar_right_61.jpg,"['darkorange', 'darkorange', 'darkorange', 'darkorange', 'purple', 'darkorange', 'purple', 'purple', 'darkorange']",right,-0.25,0,0.5,0,./Stimuli/reg_trials/marblejar_right_61.jpg,"['darkorange', 'darkorange', 'darkorange', 'darkorange', 'purple', 'darkorange', 'purple', 'purple', 'darkorange']",same,f,task_ChangeDetection,4,3,2,1.0,,,,,0.0,0.0,0.0,'j',1.1859537363052368,1.1859537363052368,0.0,0.0,0.0,0.0,,,,,194.0
./Stimuli/reg_trials/rand_marblejar_62.jpg,"['purple', 'darkorange', 'darkorange', 'purple', 'darkorange', 'purple', 'purple', 'green', 'green']",./Stimuli/reg_trials/marblejar_right_62.jpg,"['purple', 'darkorange', 'green', 'purple', 'darkorange', 'green', 'darkorange', 'darkorange', 'purple']",right,-0.25,0,0.5,0,./Stimuli/reg_trials/marblejar_right_62.jpg,"['purple', 'darkorange', 'green', 'purple', 'darkorange', 'green', 'darkorange', 'darkorange', 'purple']",same,f,task_JarSelection,4,3,2,1.0,,,,,0.0,0.0,0.0,,,,,0.0,0.0,0.0,'f',0.5563169717788696,0.5563169717788696,0.0,42.0
./Stimuli/reg_trials/rand_marblejar_63.jpg,"['purple', 'green', 'darkorange', 'purple', 'darkorange', 'purple', 'darkorange', 'purple', 'purple']",./Stimuli/reg_trials/marblejar_right_63.jpg,"['purple', 'green', 'purple', 'purple', 'darkorange', 'green', 'purple', 'purple', 'darkorange']",right,-0.25,0,0.5,0,./Stimuli/reg_trials/marblejar_right_63.jpg,"['purple', 'green', 'purple', 'purple', 'darkorange', 'green', 'purple', 'purple', 'darkorange']",same,f,task_ChangeDetection,4,3,2,1.0,,,,,1.0,1.0,0.0,'f',0.9770787358283997,0.9770787358283997,0.0,0.0,0.0,0.0,,,,,247.0
./Stimuli/reg_trials/rand_marblejar_64.jpg,"['purple', 'darkorange', 'darkorange', 'green', 'darkorange', 'purple', 'purple', 'purple', 'purple']",./Stimuli/reg_trials/marblejar_right_64.jpg,"['purple', 'purple', 'darkorange', 'darkorange', 'purple', 'purple', 'darkorange', 'green', 'purple']",right,-0.25,0,0.5,0,./Stimuli/reg_trials/marblejar3_right_different_64.jpg,"['green', 'darkorange', 'purple', 'darkorange', 'darkorange', 'purple', 'darkorange', 'darkorange', 'purple']",different,j,task_JarSelection,4,3,2,1.0,,,,,0.0,0.0,0.0,,,,,0.0,0.0,0.0,'f',1.9469528198242188,1.9469528198242188,0.0,14.0
./Stimuli/reg_trials/rand_marblejar_65.jpg,"['green', 'purple', 'green', 'purple', 'darkorange', 'purple', 'purple', 'darkorange', 'darkorange']",./Stimuli/reg_trials/marblejar_right_65.jpg,"['purple', 'purple', 'darkorange', 'purple', 'purple', 'darkorange', 'darkorange', 'green', 'darkorange']",right,-0.25,0,0.5,0,./Stimuli/reg_trials/marblejar_right_65.jpg,"['purple', 'purple', 'darkorange', 'purple', 'purple', 'darkorange', 'darkorange', 'green', 'darkorange']",same,f,task_ChangeDetection,4,3,2,1.0,,,,,1.0,1.0,0.0,'f',1.092616319656372,1.092616319656372,0.0,0.0,0.0,0.0,,,,,220.0
./Stimuli/reg_trials/rand_marblejar_66.jpg,"['purple', 'purple', 'purple', 'purple', 'green', 'green', 'darkorange', 'green', 'purple']",./Stimuli/reg_trials/marblejar_right_66.jpg,"['purple', 'purple', 'green', 'purple', 'green', 'purple', 'green', 'darkorange', 'darkorange']",right,-0.25,0,0.5,0,./Stimuli/reg_trials/marblejar3_right_different_66.jpg,"['green', 'green', 'purple', 'purple', 'purple', 'darkorange', 'purple', 'darkorange', 'darkorange']",different,j,task_JarSelection,4,3,2,1.0,,,,,0.0,0.0,0.0,,,,,0.0,0.0,0.0,'j',0.2657935917377472,0.2657935917377472,0.0,56.0
./Stimuli/reg_trials/rand_marblejar_67.jpg,"['purple', 'darkorange', 'darkorange', 'purple', 'purple', 'green', 'purple', 'darkorange', 'darkorange']",./Stimuli/reg_trials/marblejar_right_67.jpg,"['darkorange', 'darkorange', 'purple', 'purple', 'purple', 'darkorange', 'darkorange', 'darkorange', 'purple']",right,-0.25,0,0.5,0,./Stimuli/reg_trials/marblejar3_right_different_67.jpg,"['purple', 'purple', 'darkorange', 'darkorange', 'darkorange', 'purple', 'purple', 'green', 'darkorange']",different,j,task_ChangeDetection,4,3,2,1.0,,,,,1.0,1.0,0.0,'j',1.295986533164978,1.295986533164978,0.0,0.0,0.0,0.0,,,,,170.0
./Stimuli/reg_trials/rand_marblejar_68.jpg,"['purple', 'green', 'darkorange', 'purple', 'green', 'purple', 'purple', 'purple', 'green']",./Stimuli/reg_trials/marblejar_right_68.jpg,"['purple', 'purple', 'purple', 'purple', 'purple', 'purple', 'purple', 'darkorange', 'darkorange']",right,-0.25,0,0.5,0,./Stimuli/reg_trials/marblejar_right_68.jpg,"['purple', 'purple', 'purple', 'purple', 'purple', 'purple', 'purple', 'darkorange', 'darkorange']",same,f,task_JarSelection,4,3,2,1.0,,,,,0.0,0.0,0.0,,,,,0.0,0.0,0.0,'j',0.7937925457954407,0.7937925457954407,0.0,284.0
./Stimuli/reg_trials/rand_marblejar_69.jpg,"['darkorange', 'green', 'darkorange', 'green', 'darkorange', 'darkorange', 'darkorange', 'darkorange', 'purple']",./Stimuli/reg_trials/marblejar_right_69.jpg,"['darkorange', 'purple', 'purple', 'purple', 'purple', 'darkorange', 'darkorange', 'darkorange', 'purple']",right,-0.25,0,0.5,0,./Stimuli/reg_trials/marblejar_right_69.jpg,"['darkorange', 'purple', 'purple', 'purple', 'purple', 'darkorange', 'darkorange', 'darkorange', 'purple']",same,f,task_ChangeDetection,4,3,2,1.0,,,,,1.0,1.0,0.0,'f',0.9555152058601379,0.9555152058601379,0.0,0.0,0.0,0.0,,,,,51.0
./Stimuli/reg_trials/rand_marblejar_70.jpg,"['darkorange', 'purple', 'green', 'green', 'purple', 'purple', 'purple', 'purple', 'purple']",./Stimuli/reg_trials/marblejar_right_70.jpg,"['purple', 'purple', 'darkorange', 'purple', 'purple', 'darkorange', 'green', 'darkorange', 'green']",right,-0.25,0,0.5,0,./Stimuli/reg_trials/marblejar_right_70.jpg,"['purple', 'purple', 'darkorange', 'purple', 'purple', 'darkorange', 'green', 'darkorange', 'green']",same,f,task_JarSelection,4,3,2,1.0,,,,,0.0,0.0,0.0,,,,,0.0,0.0,0.0,'f',0.4240645468235016,0.4240645468235016,0.0,92.0
./Stimuli/reg_trials/rand_marblejar_71.jpg,"['purple', 'darkorange', 'darkorange', 'purple', 'purple', 'purple', 'purple', 'darkorange', 'darkorange']",./Stimuli/reg_trials/marblejar_right_71.jpg,"['purple', 'purple', 'darkorange', 'darkorange', 'purple', 'purple', 'green', 'darkorange', 'darkorange']",right,-0.25,0,0.5,0,./Stimuli/reg_trials/marblejar_right_71.jpg,"['purple', 'purple', 'darkorange', 'darkorange', 'purple', 'purple', 'green', 'darkorange', 'darkorange']",same,f,task_ChangeDetection,4,3,2,1.0,,,,,1.0,1.0,0.0,'f',0.9283836483955383,0.9283836483955383,0.0,0.0,0.0,0.0,,,,,151.0
./Stimuli/reg_trials/rand_marblejar_72.jpg,"['purple', 'purple', 'green', 'darkorange', 'purple', 'purple', 'green', 'green', 'green']",./Stimuli/reg_trials/marblejar_right_72.jpg,"['purple', 'purple', 'darkorange', 'green', 'purple', 'purple', 'purple', 'purple', 'darkorange']",right,-0.25,0,0.5,0,./Stimuli/reg_trials/marblejar_right_72.jpg,"['purple', 'purple', 'darkorange', 'green', 'purple', 'purple', 'purple', 'purple', 'darkorange']",same,f,task_JarSelection,4,3,2,1.0,,,,,0.0,0.0,0.0,,,,,0.0,0.0,0.0,'f',0.3904719054698944,0.3904719054698944,0.0,243.0
./Stimuli/reg_trials/rand_marblejar_73.jpg,"['darkorange', 'darkorange', 'purple', 'purple', 'green', 'darkorange', 'darkorange', 'purple', 'purple']",./Stimuli/reg_trials/marblejar_right_73.jpg,"['green', 'purple', 'darkorange', 'darkorange', 'green', 'purple', 'darkorange', 'darkorange', 'purple']",right,-0.25,0,0.5,0,./Stimuli/reg_trials/marblejar3_right_different_73.jpg,"['purple', 'purple', 'purple', 'purple', 'darkorange', 'purple', 'purple', 'green', 'purple']",different,j,task_ChangeDetection,4,3,2,1.0,,,,,1.0,1.0,0.0,'j',0.9101359844207764,0.9101359844207764,0.0,0.0,0.0,0.0,,,,,233.0
./Stimuli/reg_trials/rand_marblejar_74.jpg,"['darkorange', 'green', 'purple', 'purple', 'darkorange', 'purple', 'green', 'purple', 'green']",./Stimuli/reg_trials/marblejar_right_74.jpg,"['green', 'purple', 'darkorange', 'green', 'purple', 'green', 'purple', 'darkorange', 'darkorange']",right,-0.25,0,0.5,0,./Stimuli/reg_trials/marblejar3_right_different_74.jpg,"['purple', 'purple', 'darkorange', 'purple', 'purple', 'darkorange', 'purple', 'darkorange', 'darkorange']",different,j,task_JarSelection,4,3,2,1.0,,,,,0.0,0.0,0.0,,,,,0.0,0.0,0.0,'j',1.1278460025787354,1.1278460025787354,0.0,120.0
./Stimuli/reg_trials/rand_marblejar_75.jpg,"['darkorange', 'darkorange', 'purple', 'darkorange', 'purple', 'purple', 'darkorange', 'green', 'purple']",./Stimuli/reg_trials/marblejar_right_75.jpg,"['purple', 'purple', 'purple', 'purple', 'green', 'green', 'purple', 'darkorange', 'darkorange']",right,-0.25,0,0.5,0,./Stimuli/reg_trials/marblejar_right_75.jpg,"['purple', 'purple', 'purple', 'purple', 'green', 'green', 'purple', 'darkorange', 'darkorange']",same,f,task_ChangeDetection,4,3,2,1.0,,,,,0.0,0.0,0.0,'j',1.5341553688049316,1.5341553688049316,0.0,0.0,0.0,0.0,,,,,199.0
./Stimuli/reg_trials/rand_marblejar_76.jpg,"['green', 'darkorange', 'purple', 'purple', 'purple', 'purple', 'purple', 'darkorange', 'darkorange']",./Stimuli/reg_trials/marblejar_right_76.jpg,"['purple', 'purple', 'purple', 'purple', 'green', 'purple', 'purple', 'purple', 'green']",right,-0.25,0,0.5,0,./Stimuli/reg_trials/marblejar3_right_different_76.jpg,"['darkorange', 'purple', 'purple', 'purple', 'purple', 'darkorange', 'purple', 'purple', 'darkorange']",different,j,task_ChangeDetection,4,3,2,1.0,,,,,1.0,1.0,0.0,'j',1.4574706554412842,1.4574706554412842,0.0,0.0,0.0,0.0,,,,,8.0
./Stimuli/reg_trials/rand_marblejar_77.jpg,"['purple', 'purple', 'green', 'green', 'darkorange', 'purple', 'darkorange', 'purple', 'darkorange']",./Stimuli/reg_trials/marblejar_right_77.jpg,"['green', 'purple', 'purple', 'purple', 'darkorange', 'purple', 'green', 'purple', 'green']",right,-0.25,0,0.5,0,./Stimuli/reg_trials/marblejar_right_77.jpg,"['green', 'purple', 'purple', 'purple', 'darkorange', 'purple', 'green', 'purple', 'green']",same,f,task_JarSelection,4,3,2,1.0,,,,,0.0,0.0,0.0,,,,,0.0,0.0,0.0,'f',0.5709227323532104,0.5709227323532104,0.0,105.0
./Stimuli/reg_trials/rand_marblejar_78.jpg,"['green', 'purple', 'purple', 'darkorange', 'darkorange', 'purple', 'darkorange', 'darkorange', 'green']",./Stimuli/reg_trials/marblejar_right_78.jpg,"['darkorange', 'purple', 'purple', 'darkorange', 'darkorange', 'green', 'green', 'green', 'purple']",right,-0.25,0,0.5,0,./Stimuli/reg_trials/marblejar3_right_different_78.jpg,"['darkorange', 'purple', 'purple', 'purple', 'purple', 'darkorange', 'darkorange', 'purple', 'darkorange']",different,j,task_ChangeDetection,4,3,2,1.0,,,,,0.0,0.0,0.0,'f',1.6245651245117188,1.6245651245117188,0.0,0.0,0.0,0.0,,,,,282.0
./Stimuli/reg_trials/rand_marblejar_79.jpg,"['darkorange', 'darkorange', 'purple', 'green', 'darkorange', 'darkorange', 'darkorange', 'darkorange', 'purple']",./Stimuli/reg_trials/marblejar_right_79.jpg,"['purple', 'purple', 'purple', 'darkorange', 'darkorange', 'darkorange', 'purple', 'green', 'darkorange']",right,-0.25,0,0.5,0,./Stimuli/reg_trials/marblejar3_right_different_79.jpg,"['green', 'purple', 'purple', 'green', 'green', 'purple', 'darkorange', 'green', 'darkorange']",different,j,task_JarSelection,4,3,2,1.0,,,,,0.0,0.0,0.0,,,,,0.0,0.0,0.0,'j',0.7823771238327026,0.7823771238327026,0.0,187.0
./Stimuli/reg_trials/rand_marblejar_80.jpg,"['purple', 'purple', 'purple', 'darkorange', 'purple', 'purple', 'purple', 'purple', 'purple']",./Stimuli/reg_trials/marblejar_right_80.jpg,"['purple', 'darkorange', 'purple', 'purple', 'purple', 'purple', 'purple', 'green', 'purple']",right,-0.25,0,0.5,0,./Stimuli/reg_trials/marblejar3_right_different_80.jpg,"['darkorange', 'purple', 'green', 'purple', 'purple', 'green', 'darkorange', 'green', 'green']",different,j,task_ChangeDetection,4,3,2,1.0,,,,,0.0,0.0,0.0,'f',1.0055149793624878,1.0055149793624878,0.0,0.0,0.0,0.0,,,,,186.0
./Stimuli/reg_trials/rand_marblejar_81.jpg,"['purple', 'purple', 'darkorange', 'darkorange', 'purple', 'darkorange', 'darkorange', 'purple', 'purple']",./Stimuli/reg_trials/marblejar_right_81.jpg,"['darkorange', 'purple', 'purple', 'darkorange', 'green', 'darkorange', 'purple', 'green', 'darkorange']",right,-0.25,0,0.5,0,./Stimuli/reg_trials/marblejar3_right_different_81.jpg,"['purple', 'purple', 'green', 'purple', 'green', 'purple', 'green', 'green', 'purple']",different,j,task_JarSelection,4,3,2,1.0,,,,,0.0,0.0,0.0,,,,,0.0,0.0,0.0,'j',0.8484927415847778,0.8484927415847778,0.0,17.0
./Stimuli/reg_trials/rand_marblejar_82.jpg,"['purple', 'green', 'purple', 'purple', 'purple', 'darkorange', 'green', 'green', 'darkorange']",./Stimuli/reg_trials/marblejar_right_82.jpg,"['green', 'green', 'purple', 'green', 'purple', 'purple', 'purple', 'darkorange', 'purple']",right,-0.25,0,0.5,0,./Stimuli/reg_trials/marblejar_right_82.jpg,"['green', 'green', 'purple', 'green', 'purple', 'purple', 'purple', 'darkorange', 'purple']",same,f,task_ChangeDetection,4,3,2,1.0,,,,,1.0,1.0,0.0,'f',1.0076377391815186,1.0076377391815186,0.0,0.0,0.0,0.0,,,,,227.0
./Stimuli/reg_trials/rand_marblejar_83.jpg,"['purple', 'purple', 'darkorange', 'darkorange', 'purple', 'purple', 'darkorange', 'darkorange', 'green']",./Stimuli/reg_trials/marblejar_right_83.jpg,"['darkorange', 'purple', 'purple', 'green', 'purple', 'darkorange', 'darkorange', 'green', 'purple']",right,-0.25,0,0.5,0,./Stimuli/reg_trials/marblejar_right_83.jpg,"['darkorange', 'purple', 'purple', 'green', 'purple', 'darkorange', 'darkorange', 'green', 'purple']",same,f,task_JarSelection,4,3,2,1.0,,,,,0.0,0.0,0.0,,,,,0.0,0.0,0.0,'j',0.32507362961769104,0.32507362961769104,0.0,96.0
./Stimuli/reg_trials/rand_marblejar_84.jpg,"['green', 'purple', 'darkorange', 'darkorange', 'darkorange', 'darkorange', 'darkorange', 'darkorange', 'darkorange']",./Stimuli/reg_trials/marblejar_right_84.jpg,"['darkorange', 'purple', 'purple', 'darkorange', 'purple', 'green', 'purple', 'purple', 'purple']",right,-0.25,0,0.5,0,./Stimuli/reg_trials/marblejar_right_84.jpg,"['darkorange', 'purple', 'purple', 'darkorange', 'purple', 'green', 'purple', 'purple', 'purple']",same,f,task_ChangeDetection,4,3,2,1.0,,,,,1.0,1.0,0.0,'f',0.9579734206199646,0.9579734206199646,0.0,0.0,0.0,0.0,,,,,164.0
./Stimuli/reg_trials/rand_marblejar_85.jpg,"['purple', 'green', 'green', 'purple', 'darkorange', 'purple', 'purple', 'green', 'green']",./Stimuli/reg_trials/marblejar_right_85.jpg,"['darkorange', 'green', 'darkorange', 'darkorange', 'purple', 'darkorange', 'purple', 'darkorange', 'darkorange']",right,-0.25,0,0.5,0,./Stimuli/reg_trials/marblejar3_right_different_85.jpg,"['purple', 'purple', 'purple', 'purple', 'darkorange', 'purple', 'purple', 'darkorange', 'darkorange']",different,j,task_JarSelection,4,3,2,1.0,,,,,0.0,0.0,0.0,,,,,0.0,0.0,0.0,'f',1.0881168842315674,1.0881168842315674,0.0,38.0
./Stimuli/reg_trials/rand_marblejar_86.jpg,"['darkorange', 'darkorange', 'purple', 'darkorange', 'darkorange', 'darkorange', 'purple', 'purple', 'purple']",./Stimuli/reg_trials/marblejar_right_86.jpg,"['darkorange', 'darkorange', 'green', 'darkorange', 'green', 'purple', 'darkorange', 'darkorange', 'darkorange']",right,-0.25,0,0.5,0,./Stimuli/reg_trials/marblejar_right_86.jpg,"['darkorange', 'darkorange', 'green', 'darkorange', 'green', 'purple', 'darkorange', 'darkorange', 'darkorange']",same,f,task_ChangeDetection,4,3,2,1.0,,,,,0.0,0.0,0.0,'j',1.4696112871170044,1.4696112871170044,0.0,0.0,0.0,0.0,,,,,273.0
./Stimuli/reg_trials/rand_marblejar_87.jpg,"['purple', 'green', 'green', 'green', 'purple', 'green', 'darkorange', 'green', 'purple']",./Stimuli/reg_trials/marblejar_right_87.jpg,"['darkorange', 'purple', 'green', 'green', 'purple', 'green', 'darkorange', 'darkorange', 'green']",right,-0.25,0,0.5,0,./Stimuli/reg_trials/marblejar3_right_different_87.jpg,"['darkorange', 'darkorange', 'purple', 'darkorange', 'purple', 'darkorange', 'darkorange', 'purple', 'purple']",different,j,task_JarSelection,4,3,2,1.0,,,,,0.0,0.0,0.0,,,,,0.0,0.0,0.0,'f',0.3375103771686554,0.3375103771686554,0.0,249.0
./Stimuli/reg_trials/rand_marblejar_88.jpg,"['purple', 'purple', 'green', 'purple', 'purple', 'purple', 'darkorange', 'darkorange', 'green']",./Stimuli/reg_trials/marblejar_right_88.jpg,"['darkorange', 'darkorange', 'purple', 'green', 'purple', 'green', 'purple', 'darkorange', 'purple']",right,-0.25,0,0.5,0,./Stimuli/reg_trials/marblejar3_right_different_88.jpg,"['purple', 'green', 'purple', 'darkorange', 'darkorange', 'darkorange', 'purple', 'purple', 'green']",different,j,task_ChangeDetection,4,3,2,1.0,,,,,0.0,0.0,0.0,'f',1.0959683656692505,1.0959683656692505,0.0,0.0,0.0,0.0,,,,,162.0
./Stimuli/reg_trials/rand_marblejar_89.jpg,"['purple', 'purple', 'purple', 'darkorange', 'darkorange', 'purple', 'green', 'darkorange', 'green']",./Stimuli/reg_trials/marblejar_right_89.jpg,"['purple', 'green', 'purple', 'purple', 'purple', 'green', 'purple', 'darkorange', 'darkorange']",right,-0.25,0,0.5,0,./Stimuli/reg_trials/marblejar3_right_different_89.jpg,"['darkorange', 'darkorange', 'darkorange', 'purple', 'purple', 'purple', 'purple', 'purple', 'darkorange']",different,j,task_JarSelection,4,3,2,1.0,,,,,0.0,0.0,0.0,,,,,0.0,0.0,0.0,'j',0.49616533517837524,0.49616533517837524,0.0,86.0
./Stimuli/reg_trials/rand_marblejar_90.jpg,"['purple', 'green', 'purple', 'darkorange', 'purple', 'purple', 'purple', 'purple', 'darkorange']",./Stimuli/reg_trials/marblejar_right_90.jpg,"['darkorange', 'purple', 'purple', 'darkorange', 'purple', 'purple', 'green', 'darkorange', 'purple']",right,-0.25,0,0.5,0,./Stimuli/reg_trials/marblejar_right_90.jpg,"['darkorange', 'purple', 'purple', 'darkorange', 'purple', 'purple', 'green', 'darkorange', 'purple']",same,f,task_ChangeDetection,4,3,2,1.0,,,,,1.0,1.0,0.0,'f',1.1403251886367798,1.1403251886367798,0.0,0.0,0.0,0.0,,,,,19.0
./Stimuli/reg_trials/rand_marblejar_91.jpg,"['darkorange', 'green', 'darkorange', 'darkorange', 'darkorange', 'purple', 'purple', 'purple', 'purple']",./Stimuli/reg_trials/marblejar_right_91.jpg,"['purple', 'darkorange', 'purple', 'purple', 'purple', 'purple', 'green', 'purple', 'darkorange']",right,-0.25,0,0.5,0,./Stimuli/reg_trials/marblejar_right_91.jpg,"['purple', 'darkorange', 'purple', 'purple', 'purple', 'purple', 'green', 'purple', 'darkorange']",same,f,task_JarSelection,4,3,2,1.0,,,,,0.0,0.0,0.0,,,,,0.0,0.0,0.0,'f',0.47813883423805237,0.47813883423805237,0.0,103.0
./Stimuli/reg_trials/rand_marblejar_92.jpg,"['purple', 'green', 'darkorange', 'darkorange', 'darkorange', 'purple', 'purple', 'purple', 'purple']",./Stimuli/reg_trials/marblejar_right_92.jpg,"['green', 'purple', 'darkorange', 'darkorange', 'purple', 'green', 'purple', 'darkorange', 'purple']",right,-0.25,0,0.5,0,./Stimuli/reg_trials/marblejar3_right_different_92.jpg,"['darkorange', 'purple', 'purple', 'green', 'darkorange', 'purple', 'green', 'green', 'darkorange']",different,j,task_ChangeDetection,4,3,2,1.0,,,,,1.0,1.0,0.0,'j',1.330635666847229,1.330635666847229,0.0,0.0,0.0,0.0,,,,,65.0
./Stimuli/reg_trials/rand_marblejar_93.jpg,"['purple', 'purple', 'purple', 'purple', 'purple', 'green', 'purple', 'purple', 'green']",./Stimuli/reg_trials/marblejar_right_93.jpg,"['green', 'green', 'darkorange', 'purple', 'darkorange', 'green', 'green', 'darkorange', 'darkorange']",right,-0.25,0,0.5,0,./Stimuli/reg_trials/marblejar_right_93.jpg,"['green', 'green', 'darkorange', 'purple', 'darkorange', 'green', 'green', 'darkorange', 'darkorange']",same,f,task_JarSelection,4,3,2,1.0,,,,,0.0,0.0,0.0,,,,,0.0,0.0,0.0,'j',0.6413897275924683,0.6413897275924683,0.0,201.0
./Stimuli/reg_trials/rand_marblejar_94.jpg,"['green', 'darkorange', 'darkorange', 'darkorange', 'purple', 'darkorange', 'green', 'purple', 'purple']",./Stimuli/reg_trials/marblejar_right_94.jpg,"['purple', 'purple', 'green', 'green', 'darkorange', 'purple', 'purple', 'purple', 'purple']",right,-0.25,0,0.5,0,./Stimuli/reg_trials/marblejar3_right_different_94.jpg,"['purple', 'purple', 'darkorange', 'darkorange', 'darkorange', 'darkorange', 'green', 'darkorange', 'darkorange']",different,j,task_ChangeDetection,4,3,2,1.0,,,,,0.0,0.0,0.0,'f',0.6861413717269897,0.6861413717269897,0.0,0.0,0.0,0.0,,,,,89.0
./Stimuli/reg_trials/rand_marblejar_95.jpg,"['darkorange', 'darkorange', 'purple', 'purple', 'purple', 'purple', 'darkorange', 'green', 'darkorange']",./Stimuli/reg_trials/marblejar_right_95.jpg,"['green', 'green', 'purple', 'green', 'darkorange', 'darkorange', 'purple', 'darkorange', 'purple']",right,-0.25,0,0.5,0,./Stimuli/reg_trials/marblejar_right_95.jpg,"['green', 'green', 'purple', 'green', 'darkorange', 'darkorange', 'purple', 'darkorange', 'purple']",same,f,task_JarSelection,4,3,2,1.0,,,,,0.0,0.0,0.0,,,,,0.0,0.0,0.0,'j',0.37978142499923706,0.37978142499923706,0.0,285.0
